"Participant_ID","Accuracy","AccuracyAtLeast75","AccuracyAtLeast90","Age","Sex","Education","Trial","Cue","Flanker","RT","Visual_Acuity"
1,1,1,1,77,"Male",6,77,"SPATIAL","CONGRUENT",481,0.9
1,1,1,1,77,"Male",6,18,"SPATIAL","INCONGRUENT",640,0.9
1,1,1,1,77,"Male",6,12,"CENTRAL","INCONGRUENT",568,0.9
1,1,1,1,77,"Male",6,32,"SPATIAL","INCONGRUENT",620,0.9
1,1,1,1,77,"Male",6,60,"SPATIAL","INCONGRUENT",421,0.9
1,1,1,1,77,"Male",6,4,"SPATIAL","CONGRUENT",528,0.9
1,1,1,1,77,"Male",6,48,"NOCUE","INCONGRUENT",472,0.9
1,1,1,1,77,"Male",6,96,"CENTRAL","CONGRUENT",566,0.9
1,1,1,1,77,"Male",6,94,"CENTRAL","CONGRUENT",569,0.9
1,1,1,1,77,"Male",6,17,"SPATIAL","INCONGRUENT",726,0.9
1,1,1,1,77,"Male",6,70,"DOUBLE","INCONGRUENT",588,0.9
1,1,1,1,77,"Male",6,9,"CENTRAL","INCONGRUENT",558,0.9
1,1,1,1,77,"Male",6,75,"NOCUE","INCONGRUENT",521,0.9
1,1,1,1,77,"Male",6,13,"CENTRAL","INCONGRUENT",654,0.9
1,1,1,1,77,"Male",6,49,"SPATIAL","CONGRUENT",602,0.9
1,1,1,1,77,"Male",6,23,"NOCUE","CONGRUENT",466,0.9
1,1,1,1,77,"Male",6,57,"DOUBLE","CONGRUENT",559,0.9
1,1,1,1,77,"Male",6,73,"DOUBLE","CONGRUENT",571,0.9
1,1,1,1,77,"Male",6,62,"CENTRAL","INCONGRUENT",484,0.9
1,1,1,1,77,"Male",6,34,"DOUBLE","INCONGRUENT",563,0.9
1,1,1,1,77,"Male",6,35,"CENTRAL","INCONGRUENT",576,0.9
1,0,1,1,77,"Male",6,10,"SPATIAL","INCONGRUENT",NA,0.9
1,1,1,1,77,"Male",6,82,"SPATIAL","CONGRUENT",539,0.9
1,1,1,1,77,"Male",6,74,"DOUBLE","CONGRUENT",501,0.9
1,1,1,1,77,"Male",6,52,"NOCUE","INCONGRUENT",565,0.9
1,1,1,1,77,"Male",6,27,"SPATIAL","CONGRUENT",497,0.9
1,1,1,1,77,"Male",6,64,"DOUBLE","CONGRUENT",459,0.9
1,1,1,1,77,"Male",6,83,"NOCUE","CONGRUENT",492,0.9
1,1,1,1,77,"Male",6,50,"SPATIAL","CONGRUENT",473,0.9
1,1,1,1,77,"Male",6,26,"NOCUE","INCONGRUENT",611,0.9
1,1,1,1,77,"Male",6,91,"DOUBLE","CONGRUENT",769,0.9
1,1,1,1,77,"Male",6,61,"CENTRAL","INCONGRUENT",566,0.9
1,1,1,1,77,"Male",6,36,"NOCUE","CONGRUENT",559,0.9
1,1,1,1,77,"Male",6,88,"CENTRAL","INCONGRUENT",518,0.9
1,1,1,1,77,"Male",6,41,"CENTRAL","CONGRUENT",502,0.9
1,1,1,1,77,"Male",6,79,"CENTRAL","CONGRUENT",471,0.9
1,1,1,1,77,"Male",6,6,"NOCUE","CONGRUENT",501,0.9
1,1,1,1,77,"Male",6,55,"DOUBLE","CONGRUENT",529,0.9
1,1,1,1,77,"Male",6,58,"SPATIAL","INCONGRUENT",526,0.9
1,1,1,1,77,"Male",6,86,"DOUBLE","CONGRUENT",547,0.9
1,1,1,1,77,"Male",6,81,"DOUBLE","INCONGRUENT",551,0.9
1,1,1,1,77,"Male",6,21,"CENTRAL","INCONGRUENT",670,0.9
1,1,1,1,77,"Male",6,20,"SPATIAL","CONGRUENT",657,0.9
1,1,1,1,77,"Male",6,38,"DOUBLE","INCONGRUENT",576,0.9
1,1,1,1,77,"Male",6,40,"NOCUE","CONGRUENT",497,0.9
1,1,1,1,77,"Male",6,89,"DOUBLE","INCONGRUENT",549,0.9
1,1,1,1,77,"Male",6,45,"CENTRAL","CONGRUENT",551,0.9
1,1,1,1,77,"Male",6,39,"NOCUE","INCONGRUENT",466,0.9
1,1,1,1,77,"Male",6,33,"SPATIAL","INCONGRUENT",600,0.9
1,1,1,1,77,"Male",6,95,"NOCUE","INCONGRUENT",529,0.9
1,1,1,1,77,"Male",6,7,"DOUBLE","CONGRUENT",521,0.9
1,1,1,1,77,"Male",6,28,"CENTRAL","CONGRUENT",472,0.9
1,1,1,1,77,"Male",6,42,"DOUBLE","CONGRUENT",486,0.9
1,1,1,1,77,"Male",6,11,"CENTRAL","CONGRUENT",784,0.9
1,1,1,1,77,"Male",6,19,"NOCUE","CONGRUENT",505,0.9
1,1,1,1,77,"Male",6,67,"NOCUE","CONGRUENT",559,0.9
1,1,1,1,77,"Male",6,43,"DOUBLE","CONGRUENT",550,0.9
1,1,1,1,77,"Male",6,25,"NOCUE","INCONGRUENT",574,0.9
1,1,1,1,77,"Male",6,84,"CENTRAL","CONGRUENT",505,0.9
1,1,1,1,77,"Male",6,47,"NOCUE","CONGRUENT",569,0.9
1,1,1,1,77,"Male",6,16,"DOUBLE","INCONGRUENT",504,0.9
1,1,1,1,77,"Male",6,3,"CENTRAL","CONGRUENT",892,0.9
1,1,1,1,77,"Male",6,78,"CENTRAL","CONGRUENT",459,0.9
1,1,1,1,77,"Male",6,56,"SPATIAL","CONGRUENT",579,0.9
1,1,1,1,77,"Male",6,5,"SPATIAL","CONGRUENT",551,0.9
1,1,1,1,77,"Male",6,31,"DOUBLE","INCONGRUENT",704,0.9
1,1,1,1,77,"Male",6,87,"SPATIAL","CONGRUENT",484,0.9
1,1,1,1,77,"Male",6,37,"DOUBLE","INCONGRUENT",714,0.9
1,1,1,1,77,"Male",6,46,"NOCUE","CONGRUENT",677,0.9
1,1,1,1,77,"Male",6,59,"DOUBLE","INCONGRUENT",458,0.9
1,1,1,1,77,"Male",6,80,"NOCUE","INCONGRUENT",419,0.9
1,1,1,1,77,"Male",6,69,"CENTRAL","CONGRUENT",624,0.9
1,1,1,1,77,"Male",6,8,"SPATIAL","INCONGRUENT",831,0.9
1,1,1,1,77,"Male",6,30,"CENTRAL","INCONGRUENT",525,0.9
1,1,1,1,77,"Male",6,72,"DOUBLE","INCONGRUENT",622,0.9
1,1,1,1,77,"Male",6,29,"SPATIAL","INCONGRUENT",712,0.9
1,1,1,1,77,"Male",6,85,"CENTRAL","INCONGRUENT",686,0.9
1,1,1,1,77,"Male",6,63,"NOCUE","CONGRUENT",489,0.9
1,1,1,1,77,"Male",6,24,"NOCUE","CONGRUENT",614,0.9
1,1,1,1,77,"Male",6,76,"DOUBLE","INCONGRUENT",674,0.9
1,1,1,1,77,"Male",6,54,"NOCUE","INCONGRUENT",551,0.9
1,1,1,1,77,"Male",6,14,"DOUBLE","CONGRUENT",601,0.9
1,1,1,1,77,"Male",6,15,"SPATIAL","INCONGRUENT",708,0.9
1,1,1,1,77,"Male",6,68,"CENTRAL","CONGRUENT",449,0.9
1,1,1,1,77,"Male",6,92,"NOCUE","CONGRUENT",609,0.9
1,1,1,1,77,"Male",6,93,"NOCUE","INCONGRUENT",538,0.9
1,1,1,1,77,"Male",6,66,"CENTRAL","INCONGRUENT",475,0.9
1,1,1,1,77,"Male",6,71,"NOCUE","INCONGRUENT",666,0.9
1,1,1,1,77,"Male",6,90,"SPATIAL","CONGRUENT",506,0.9
1,1,1,1,77,"Male",6,44,"DOUBLE","CONGRUENT",538,0.9
1,1,1,1,77,"Male",6,2,"NOCUE","INCONGRUENT",532,0.9
1,1,1,1,77,"Male",6,1,"CENTRAL","INCONGRUENT",815,0.9
1,1,1,1,77,"Male",6,51,"SPATIAL","CONGRUENT",530,0.9
1,1,1,1,77,"Male",6,53,"SPATIAL","INCONGRUENT",582,0.9
1,1,1,1,77,"Male",6,22,"SPATIAL","INCONGRUENT",537,0.9
1,1,1,1,77,"Male",6,65,"DOUBLE","INCONGRUENT",567,0.9
2,1,1,1,72,"Female",16,63,"CENTRAL","INCONGRUENT",1222,0.9
2,1,1,1,72,"Female",16,55,"NOCUE","INCONGRUENT",782,0.9
2,1,1,1,72,"Female",16,7,"SPATIAL","INCONGRUENT",853,0.9
2,1,1,1,72,"Female",16,91,"CENTRAL","INCONGRUENT",1468,0.9
2,1,1,1,72,"Female",16,68,"CENTRAL","INCONGRUENT",1039,0.9
2,1,1,1,72,"Female",16,28,"CENTRAL","INCONGRUENT",852,0.9
2,1,1,1,72,"Female",16,92,"NOCUE","CONGRUENT",892,0.9
2,1,1,1,72,"Female",16,33,"NOCUE","INCONGRUENT",829,0.9
2,1,1,1,72,"Female",16,89,"NOCUE","INCONGRUENT",681,0.9
2,1,1,1,72,"Female",16,5,"DOUBLE","CONGRUENT",712,0.9
2,1,1,1,72,"Female",16,64,"SPATIAL","INCONGRUENT",765,0.9
2,1,1,1,72,"Female",16,62,"DOUBLE","CONGRUENT",765,0.9
2,1,1,1,72,"Female",16,45,"DOUBLE","CONGRUENT",845,0.9
2,1,1,1,72,"Female",16,6,"CENTRAL","CONGRUENT",677,0.9
2,1,1,1,72,"Female",16,27,"CENTRAL","CONGRUENT",721,0.9
2,1,1,1,72,"Female",16,53,"DOUBLE","CONGRUENT",728,0.9
2,1,1,1,72,"Female",16,32,"NOCUE","CONGRUENT",919,0.9
2,1,1,1,72,"Female",16,88,"CENTRAL","INCONGRUENT",910,0.9
2,1,1,1,72,"Female",16,93,"NOCUE","INCONGRUENT",1137,0.9
2,1,1,1,72,"Female",16,72,"DOUBLE","INCONGRUENT",970,0.9
2,1,1,1,72,"Female",16,96,"DOUBLE","INCONGRUENT",1136,0.9
2,1,1,1,72,"Female",16,84,"CENTRAL","CONGRUENT",457,0.9
2,1,1,1,72,"Female",16,23,"SPATIAL","CONGRUENT",1061,0.9
2,1,1,1,72,"Female",16,69,"CENTRAL","CONGRUENT",939,0.9
2,1,1,1,72,"Female",16,61,"CENTRAL","CONGRUENT",842,0.9
2,1,1,1,72,"Female",16,30,"SPATIAL","CONGRUENT",772,0.9
2,1,1,1,72,"Female",16,73,"CENTRAL","INCONGRUENT",687,0.9
2,1,1,1,72,"Female",16,38,"DOUBLE","CONGRUENT",726,0.9
2,1,1,1,72,"Female",16,25,"DOUBLE","CONGRUENT",1034,0.9
2,1,1,1,72,"Female",16,56,"SPATIAL","INCONGRUENT",1107,0.9
2,1,1,1,72,"Female",16,57,"SPATIAL","INCONGRUENT",814,0.9
2,1,1,1,72,"Female",16,24,"CENTRAL","CONGRUENT",713,0.9
2,1,1,1,72,"Female",16,90,"DOUBLE","CONGRUENT",623,0.9
2,1,1,1,72,"Female",16,39,"SPATIAL","CONGRUENT",1691,0.9
2,1,1,1,72,"Female",16,40,"CENTRAL","INCONGRUENT",966,0.9
2,1,1,1,72,"Female",16,48,"NOCUE","INCONGRUENT",1051,0.9
2,1,1,1,72,"Female",16,42,"NOCUE","INCONGRUENT",853,0.9
2,1,1,1,72,"Female",16,95,"SPATIAL","CONGRUENT",661,0.9
2,1,1,1,72,"Female",16,50,"NOCUE","CONGRUENT",911,0.9
2,1,1,1,72,"Female",16,85,"NOCUE","CONGRUENT",818,0.9
2,1,1,1,72,"Female",16,20,"DOUBLE","CONGRUENT",762,0.9
2,1,1,1,72,"Female",16,36,"NOCUE","CONGRUENT",818,0.9
2,1,1,1,72,"Female",16,4,"SPATIAL","CONGRUENT",688,0.9
2,1,1,1,72,"Female",16,75,"DOUBLE","INCONGRUENT",879,0.9
2,1,1,1,72,"Female",16,81,"DOUBLE","INCONGRUENT",832,0.9
2,1,1,1,72,"Female",16,43,"DOUBLE","INCONGRUENT",918,0.9
2,1,1,1,72,"Female",16,65,"CENTRAL","CONGRUENT",771,0.9
2,1,1,1,72,"Female",16,37,"SPATIAL","INCONGRUENT",774,0.9
2,1,1,1,72,"Female",16,22,"SPATIAL","CONGRUENT",891,0.9
2,1,1,1,72,"Female",16,44,"SPATIAL","INCONGRUENT",897,0.9
2,1,1,1,72,"Female",16,74,"DOUBLE","INCONGRUENT",874,0.9
2,1,1,1,72,"Female",16,9,"SPATIAL","CONGRUENT",699,0.9
2,1,1,1,72,"Female",16,52,"NOCUE","CONGRUENT",679,0.9
2,1,1,1,72,"Female",16,2,"DOUBLE","CONGRUENT",963,0.9
2,1,1,1,72,"Female",16,60,"SPATIAL","CONGRUENT",818,0.9
2,1,1,1,72,"Female",16,86,"NOCUE","CONGRUENT",759,0.9
2,1,1,1,72,"Female",16,70,"CENTRAL","CONGRUENT",766,0.9
2,1,1,1,72,"Female",16,10,"NOCUE","INCONGRUENT",771,0.9
2,1,1,1,72,"Female",16,51,"SPATIAL","INCONGRUENT",834,0.9
2,1,1,1,72,"Female",16,94,"SPATIAL","INCONGRUENT",851,0.9
2,1,1,1,72,"Female",16,54,"DOUBLE","CONGRUENT",1034,0.9
2,1,1,1,72,"Female",16,17,"SPATIAL","CONGRUENT",746,0.9
2,1,1,1,72,"Female",16,34,"CENTRAL","CONGRUENT",882,0.9
2,1,1,1,72,"Female",16,80,"CENTRAL","INCONGRUENT",749,0.9
2,1,1,1,72,"Female",16,67,"DOUBLE","INCONGRUENT",826,0.9
2,1,1,1,72,"Female",16,29,"NOCUE","CONGRUENT",1036,0.9
2,1,1,1,72,"Female",16,83,"CENTRAL","CONGRUENT",680,0.9
2,1,1,1,72,"Female",16,11,"CENTRAL","CONGRUENT",680,0.9
2,1,1,1,72,"Female",16,77,"NOCUE","CONGRUENT",670,0.9
2,1,1,1,72,"Female",16,14,"DOUBLE","INCONGRUENT",681,0.9
2,1,1,1,72,"Female",16,21,"SPATIAL","CONGRUENT",825,0.9
2,1,1,1,72,"Female",16,19,"SPATIAL","INCONGRUENT",917,0.9
2,1,1,1,72,"Female",16,12,"SPATIAL","INCONGRUENT",788,0.9
2,1,1,1,72,"Female",16,15,"CENTRAL","INCONGRUENT",728,0.9
2,1,1,1,72,"Female",16,82,"NOCUE","INCONGRUENT",647,0.9
2,1,1,1,72,"Female",16,71,"DOUBLE","INCONGRUENT",565,0.9
2,1,1,1,72,"Female",16,49,"DOUBLE","CONGRUENT",854,0.9
2,1,1,1,72,"Female",16,47,"CENTRAL","INCONGRUENT",558,0.9
2,1,1,1,72,"Female",16,1,"SPATIAL","CONGRUENT",983,0.9
2,1,1,1,72,"Female",16,3,"DOUBLE","INCONGRUENT",891,0.9
2,1,1,1,72,"Female",16,31,"DOUBLE","INCONGRUENT",851,0.9
2,1,1,1,72,"Female",16,46,"SPATIAL","CONGRUENT",763,0.9
2,1,1,1,72,"Female",16,58,"NOCUE","CONGRUENT",844,0.9
2,1,1,1,72,"Female",16,13,"NOCUE","INCONGRUENT",616,0.9
2,1,1,1,72,"Female",16,26,"NOCUE","CONGRUENT",876,0.9
2,1,1,1,72,"Female",16,41,"SPATIAL","INCONGRUENT",849,0.9
2,1,1,1,72,"Female",16,59,"NOCUE","INCONGRUENT",843,0.9
2,1,1,1,72,"Female",16,87,"DOUBLE","CONGRUENT",724,0.9
2,1,1,1,72,"Female",16,8,"CENTRAL","INCONGRUENT",889,0.9
2,1,1,1,72,"Female",16,35,"CENTRAL","INCONGRUENT",736,0.9
2,1,1,1,72,"Female",16,78,"CENTRAL","CONGRUENT",659,0.9
2,1,1,1,72,"Female",16,76,"NOCUE","CONGRUENT",596,0.9
2,1,1,1,72,"Female",16,66,"NOCUE","INCONGRUENT",876,0.9
2,1,1,1,72,"Female",16,18,"SPATIAL","INCONGRUENT",784,0.9
2,1,1,1,72,"Female",16,16,"DOUBLE","INCONGRUENT",1176,0.9
3,1,1,1,77,"Female",6,6,"CENTRAL","INCONGRUENT",832,1
3,1,1,1,77,"Female",6,90,"NOCUE","INCONGRUENT",737,1
3,1,1,1,77,"Female",6,89,"DOUBLE","INCONGRUENT",964,1
3,1,1,1,77,"Female",6,23,"SPATIAL","INCONGRUENT",676,1
3,1,1,1,77,"Female",6,3,"CENTRAL","CONGRUENT",695,1
3,1,1,1,77,"Female",6,13,"DOUBLE","CONGRUENT",854,1
3,1,1,1,77,"Female",6,47,"NOCUE","INCONGRUENT",765,1
3,1,1,1,77,"Female",6,33,"DOUBLE","INCONGRUENT",933,1
3,1,1,1,77,"Female",6,20,"CENTRAL","CONGRUENT",606,1
3,1,1,1,77,"Female",6,15,"DOUBLE","CONGRUENT",804,1
3,1,1,1,77,"Female",6,43,"NOCUE","CONGRUENT",651,1
3,1,1,1,77,"Female",6,50,"SPATIAL","INCONGRUENT",657,1
3,1,1,1,77,"Female",6,46,"NOCUE","CONGRUENT",811,1
3,1,1,1,77,"Female",6,10,"CENTRAL","CONGRUENT",702,1
3,1,1,1,77,"Female",6,25,"NOCUE","CONGRUENT",763,1
3,1,1,1,77,"Female",6,88,"CENTRAL","INCONGRUENT",934,1
3,1,1,1,77,"Female",6,39,"NOCUE","CONGRUENT",908,1
3,1,1,1,77,"Female",6,37,"DOUBLE","INCONGRUENT",699,1
3,1,1,1,77,"Female",6,44,"CENTRAL","CONGRUENT",923,1
3,1,1,1,77,"Female",6,40,"NOCUE","INCONGRUENT",763,1
3,1,1,1,77,"Female",6,53,"SPATIAL","INCONGRUENT",667,1
3,1,1,1,77,"Female",6,29,"SPATIAL","INCONGRUENT",835,1
3,1,1,1,77,"Female",6,14,"DOUBLE","INCONGRUENT",730,1
3,1,1,1,77,"Female",6,49,"CENTRAL","INCONGRUENT",737,1
3,1,1,1,77,"Female",6,91,"DOUBLE","CONGRUENT",761,1
3,1,1,1,77,"Female",6,68,"SPATIAL","CONGRUENT",662,1
3,1,1,1,77,"Female",6,81,"NOCUE","CONGRUENT",683,1
3,1,1,1,77,"Female",6,30,"SPATIAL","CONGRUENT",664,1
3,1,1,1,77,"Female",6,56,"CENTRAL","CONGRUENT",728,1
3,1,1,1,77,"Female",6,86,"SPATIAL","CONGRUENT",738,1
3,1,1,1,77,"Female",6,55,"CENTRAL","CONGRUENT",635,1
3,1,1,1,77,"Female",6,36,"CENTRAL","INCONGRUENT",742,1
3,1,1,1,77,"Female",6,2,"SPATIAL","CONGRUENT",557,1
3,1,1,1,77,"Female",6,54,"DOUBLE","CONGRUENT",571,1
3,1,1,1,77,"Female",6,31,"NOCUE","CONGRUENT",726,1
3,1,1,1,77,"Female",6,4,"SPATIAL","INCONGRUENT",682,1
3,1,1,1,77,"Female",6,65,"DOUBLE","CONGRUENT",569,1
3,1,1,1,77,"Female",6,87,"DOUBLE","INCONGRUENT",623,1
3,1,1,1,77,"Female",6,84,"NOCUE","INCONGRUENT",808,1
3,1,1,1,77,"Female",6,22,"NOCUE","INCONGRUENT",749,1
3,1,1,1,77,"Female",6,69,"NOCUE","CONGRUENT",727,1
3,1,1,1,77,"Female",6,34,"SPATIAL","CONGRUENT",833,1
3,1,1,1,77,"Female",6,93,"DOUBLE","CONGRUENT",839,1
3,1,1,1,77,"Female",6,5,"CENTRAL","INCONGRUENT",711,1
3,1,1,1,77,"Female",6,12,"DOUBLE","CONGRUENT",542,1
3,1,1,1,77,"Female",6,72,"DOUBLE","CONGRUENT",765,1
3,1,1,1,77,"Female",6,32,"CENTRAL","INCONGRUENT",841,1
3,1,1,1,77,"Female",6,7,"CENTRAL","INCONGRUENT",836,1
3,1,1,1,77,"Female",6,66,"NOCUE","INCONGRUENT",820,1
3,1,1,1,77,"Female",6,95,"DOUBLE","INCONGRUENT",788,1
3,1,1,1,77,"Female",6,51,"SPATIAL","INCONGRUENT",550,1
3,1,1,1,77,"Female",6,63,"DOUBLE","INCONGRUENT",686,1
3,1,1,1,77,"Female",6,38,"DOUBLE","INCONGRUENT",916,1
3,1,1,1,77,"Female",6,85,"CENTRAL","CONGRUENT",657,1
3,1,1,1,77,"Female",6,83,"NOCUE","CONGRUENT",732,1
3,1,1,1,77,"Female",6,35,"SPATIAL","CONGRUENT",719,1
3,1,1,1,77,"Female",6,77,"DOUBLE","CONGRUENT",613,1
3,1,1,1,77,"Female",6,52,"SPATIAL","CONGRUENT",672,1
3,1,1,1,77,"Female",6,76,"NOCUE","INCONGRUENT",651,1
3,1,1,1,77,"Female",6,19,"SPATIAL","INCONGRUENT",629,1
3,1,1,1,77,"Female",6,18,"CENTRAL","INCONGRUENT",788,1
3,1,1,1,77,"Female",6,41,"CENTRAL","INCONGRUENT",745,1
3,1,1,1,77,"Female",6,75,"CENTRAL","INCONGRUENT",874,1
3,1,1,1,77,"Female",6,57,"NOCUE","CONGRUENT",759,1
3,1,1,1,77,"Female",6,62,"NOCUE","INCONGRUENT",771,1
3,1,1,1,77,"Female",6,96,"CENTRAL","CONGRUENT",679,1
3,1,1,1,77,"Female",6,28,"NOCUE","INCONGRUENT",940,1
3,1,1,1,77,"Female",6,79,"NOCUE","INCONGRUENT",790,1
3,1,1,1,77,"Female",6,26,"DOUBLE","INCONGRUENT",754,1
3,1,1,1,77,"Female",6,16,"CENTRAL","CONGRUENT",593,1
3,1,1,1,77,"Female",6,45,"SPATIAL","INCONGRUENT",855,1
3,1,1,1,77,"Female",6,58,"SPATIAL","CONGRUENT",693,1
3,1,1,1,77,"Female",6,60,"CENTRAL","INCONGRUENT",749,1
3,1,1,1,77,"Female",6,48,"SPATIAL","INCONGRUENT",694,1
3,1,1,1,77,"Female",6,94,"SPATIAL","INCONGRUENT",805,1
3,1,1,1,77,"Female",6,17,"SPATIAL","CONGRUENT",692,1
3,1,1,1,77,"Female",6,80,"NOCUE","INCONGRUENT",761,1
3,1,1,1,77,"Female",6,11,"SPATIAL","INCONGRUENT",669,1
3,1,1,1,77,"Female",6,73,"DOUBLE","CONGRUENT",547,1
3,1,1,1,77,"Female",6,1,"SPATIAL","CONGRUENT",834,1
3,1,1,1,77,"Female",6,9,"SPATIAL","CONGRUENT",648,1
3,1,1,1,77,"Female",6,42,"DOUBLE","INCONGRUENT",657,1
3,1,1,1,77,"Female",6,71,"NOCUE","INCONGRUENT",879,1
3,1,1,1,77,"Female",6,74,"CENTRAL","CONGRUENT",776,1
3,1,1,1,77,"Female",6,82,"NOCUE","CONGRUENT",941,1
3,1,1,1,77,"Female",6,67,"CENTRAL","CONGRUENT",777,1
3,1,1,1,77,"Female",6,24,"SPATIAL","INCONGRUENT",605,1
3,1,1,1,77,"Female",6,61,"CENTRAL","CONGRUENT",687,1
3,1,1,1,77,"Female",6,92,"DOUBLE","CONGRUENT",680,1
3,1,1,1,77,"Female",6,27,"DOUBLE","INCONGRUENT",750,1
3,1,1,1,77,"Female",6,64,"NOCUE","CONGRUENT",703,1
3,1,1,1,77,"Female",6,70,"NOCUE","CONGRUENT",609,1
3,1,1,1,77,"Female",6,21,"CENTRAL","INCONGRUENT",773,1
3,1,1,1,77,"Female",6,59,"DOUBLE","INCONGRUENT",784,1
3,1,1,1,77,"Female",6,8,"SPATIAL","CONGRUENT",566,1
3,1,1,1,77,"Female",6,78,"DOUBLE","CONGRUENT",674,1
4,1,1,1,76,"Female",0,8,"NOCUE","CONGRUENT",638,0.4
4,1,1,1,76,"Female",0,10,"NOCUE","INCONGRUENT",937,0.4
4,1,1,1,76,"Female",0,82,"NOCUE","CONGRUENT",794,0.4
4,1,1,1,76,"Female",0,46,"SPATIAL","CONGRUENT",600,0.4
4,1,1,1,76,"Female",0,22,"SPATIAL","INCONGRUENT",570,0.4
4,1,1,1,76,"Female",0,36,"NOCUE","INCONGRUENT",695,0.4
4,1,1,1,76,"Female",0,43,"CENTRAL","INCONGRUENT",901,0.4
4,1,1,1,76,"Female",0,3,"CENTRAL","CONGRUENT",978,0.4
4,1,1,1,76,"Female",0,81,"DOUBLE","CONGRUENT",788,0.4
4,1,1,1,76,"Female",0,37,"CENTRAL","CONGRUENT",481,0.4
4,1,1,1,76,"Female",0,89,"DOUBLE","INCONGRUENT",692,0.4
4,1,1,1,76,"Female",0,41,"NOCUE","CONGRUENT",494,0.4
4,1,1,1,76,"Female",0,39,"NOCUE","INCONGRUENT",633,0.4
4,1,1,1,76,"Female",0,70,"SPATIAL","CONGRUENT",582,0.4
4,1,1,1,76,"Female",0,53,"SPATIAL","INCONGRUENT",477,0.4
4,1,1,1,76,"Female",0,17,"DOUBLE","INCONGRUENT",815,0.4
4,1,1,1,76,"Female",0,75,"DOUBLE","INCONGRUENT",684,0.4
4,1,1,1,76,"Female",0,48,"SPATIAL","INCONGRUENT",776,0.4
4,1,1,1,76,"Female",0,34,"CENTRAL","CONGRUENT",714,0.4
4,1,1,1,76,"Female",0,30,"CENTRAL","INCONGRUENT",614,0.4
4,1,1,1,76,"Female",0,73,"SPATIAL","INCONGRUENT",787,0.4
4,1,1,1,76,"Female",0,26,"NOCUE","INCONGRUENT",637,0.4
4,1,1,1,76,"Female",0,11,"NOCUE","CONGRUENT",806,0.4
4,1,1,1,76,"Female",0,4,"NOCUE","INCONGRUENT",676,0.4
4,1,1,1,76,"Female",0,58,"SPATIAL","INCONGRUENT",811,0.4
4,1,1,1,76,"Female",0,32,"NOCUE","INCONGRUENT",618,0.4
4,1,1,1,76,"Female",0,64,"SPATIAL","CONGRUENT",816,0.4
4,1,1,1,76,"Female",0,59,"DOUBLE","CONGRUENT",676,0.4
4,1,1,1,76,"Female",0,24,"CENTRAL","INCONGRUENT",692,0.4
4,1,1,1,76,"Female",0,28,"DOUBLE","CONGRUENT",606,0.4
4,1,1,1,76,"Female",0,16,"NOCUE","CONGRUENT",606,0.4
4,1,1,1,76,"Female",0,74,"CENTRAL","INCONGRUENT",727,0.4
4,1,1,1,76,"Female",0,90,"DOUBLE","CONGRUENT",666,0.4
4,1,1,1,76,"Female",0,6,"DOUBLE","CONGRUENT",758,0.4
4,1,1,1,76,"Female",0,84,"DOUBLE","INCONGRUENT",600,0.4
4,1,1,1,76,"Female",0,23,"NOCUE","CONGRUENT",748,0.4
4,1,1,1,76,"Female",0,60,"CENTRAL","INCONGRUENT",928,0.4
4,1,1,1,76,"Female",0,57,"NOCUE","CONGRUENT",564,0.4
4,1,1,1,76,"Female",0,52,"CENTRAL","INCONGRUENT",737,0.4
4,1,1,1,76,"Female",0,66,"CENTRAL","INCONGRUENT",521,0.4
4,1,1,1,76,"Female",0,51,"DOUBLE","INCONGRUENT",565,0.4
4,1,1,1,76,"Female",0,27,"SPATIAL","CONGRUENT",930,0.4
4,1,1,1,76,"Female",0,79,"NOCUE","INCONGRUENT",761,0.4
4,1,1,1,76,"Female",0,5,"NOCUE","INCONGRUENT",626,0.4
4,1,1,1,76,"Female",0,80,"DOUBLE","CONGRUENT",1064,0.4
4,1,1,1,76,"Female",0,61,"SPATIAL","INCONGRUENT",536,0.4
4,1,1,1,76,"Female",0,77,"DOUBLE","INCONGRUENT",655,0.4
4,1,1,1,76,"Female",0,54,"CENTRAL","CONGRUENT",703,0.4
4,1,1,1,76,"Female",0,72,"SPATIAL","INCONGRUENT",755,0.4
4,1,1,1,76,"Female",0,29,"SPATIAL","CONGRUENT",573,0.4
4,1,1,1,76,"Female",0,83,"SPATIAL","CONGRUENT",1005,0.4
4,1,1,1,76,"Female",0,63,"SPATIAL","INCONGRUENT",622,0.4
4,1,1,1,76,"Female",0,62,"DOUBLE","INCONGRUENT",519,0.4
4,1,1,1,76,"Female",0,85,"SPATIAL","INCONGRUENT",476,0.4
4,1,1,1,76,"Female",0,76,"CENTRAL","CONGRUENT",844,0.4
4,1,1,1,76,"Female",0,20,"NOCUE","INCONGRUENT",631,0.4
4,1,1,1,76,"Female",0,40,"SPATIAL","CONGRUENT",516,0.4
4,1,1,1,76,"Female",0,68,"SPATIAL","INCONGRUENT",570,0.4
4,1,1,1,76,"Female",0,93,"CENTRAL","INCONGRUENT",565,0.4
4,1,1,1,76,"Female",0,87,"CENTRAL","INCONGRUENT",863,0.4
4,1,1,1,76,"Female",0,92,"SPATIAL","INCONGRUENT",599,0.4
4,1,1,1,76,"Female",0,1,"DOUBLE","INCONGRUENT",760,0.4
4,1,1,1,76,"Female",0,44,"CENTRAL","INCONGRUENT",523,0.4
4,1,1,1,76,"Female",0,7,"DOUBLE","INCONGRUENT",853,0.4
4,1,1,1,76,"Female",0,9,"CENTRAL","CONGRUENT",578,0.4
4,1,1,1,76,"Female",0,18,"DOUBLE","INCONGRUENT",607,0.4
4,1,1,1,76,"Female",0,14,"CENTRAL","CONGRUENT",700,0.4
4,1,1,1,76,"Female",0,19,"CENTRAL","INCONGRUENT",579,0.4
4,1,1,1,76,"Female",0,25,"SPATIAL","INCONGRUENT",643,0.4
4,1,1,1,76,"Female",0,78,"NOCUE","INCONGRUENT",702,0.4
4,1,1,1,76,"Female",0,50,"DOUBLE","CONGRUENT",701,0.4
4,1,1,1,76,"Female",0,88,"SPATIAL","CONGRUENT",597,0.4
4,1,1,1,76,"Female",0,67,"NOCUE","CONGRUENT",546,0.4
4,1,1,1,76,"Female",0,12,"NOCUE","CONGRUENT",641,0.4
4,0,1,1,76,"Female",0,94,"CENTRAL","CONGRUENT",NA,0.4
4,1,1,1,76,"Female",0,55,"SPATIAL","CONGRUENT",712,0.4
4,1,1,1,76,"Female",0,21,"CENTRAL","INCONGRUENT",922,0.4
4,1,1,1,76,"Female",0,47,"DOUBLE","CONGRUENT",635,0.4
4,1,1,1,76,"Female",0,33,"NOCUE","INCONGRUENT",631,0.4
4,1,1,1,76,"Female",0,65,"DOUBLE","CONGRUENT",521,0.4
4,1,1,1,76,"Female",0,15,"DOUBLE","CONGRUENT",848,0.4
4,1,1,1,76,"Female",0,91,"CENTRAL","CONGRUENT",676,0.4
4,1,1,1,76,"Female",0,42,"SPATIAL","CONGRUENT",418,0.4
4,1,1,1,76,"Female",0,71,"NOCUE","INCONGRUENT",659,0.4
4,1,1,1,76,"Female",0,38,"CENTRAL","CONGRUENT",806,0.4
4,1,1,1,76,"Female",0,45,"SPATIAL","CONGRUENT",571,0.4
4,1,1,1,76,"Female",0,13,"NOCUE","CONGRUENT",691,0.4
4,1,1,1,76,"Female",0,86,"DOUBLE","CONGRUENT",551,0.4
4,0,1,1,76,"Female",0,2,"DOUBLE","INCONGRUENT",NA,0.4
4,1,1,1,76,"Female",0,31,"NOCUE","CONGRUENT",611,0.4
4,1,1,1,76,"Female",0,35,"DOUBLE","CONGRUENT",871,0.4
4,1,1,1,76,"Female",0,49,"NOCUE","CONGRUENT",660,0.4
4,1,1,1,76,"Female",0,56,"SPATIAL","CONGRUENT",799,0.4
4,1,1,1,76,"Female",0,69,"CENTRAL","CONGRUENT",882,0.4
5,1,1,1,70,"Male",0,17,"DOUBLE","INCONGRUENT",647,0.9
5,1,1,1,70,"Male",0,19,"CENTRAL","INCONGRUENT",633,0.9
5,1,1,1,70,"Male",0,23,"DOUBLE","CONGRUENT",545,0.9
5,1,1,1,70,"Male",0,63,"CENTRAL","CONGRUENT",672,0.9
5,1,1,1,70,"Male",0,14,"CENTRAL","CONGRUENT",614,0.9
5,1,1,1,70,"Male",0,80,"CENTRAL","CONGRUENT",797,0.9
5,1,1,1,70,"Male",0,60,"SPATIAL","CONGRUENT",888,0.9
5,1,1,1,70,"Male",0,35,"CENTRAL","INCONGRUENT",718,0.9
5,1,1,1,70,"Male",0,71,"SPATIAL","CONGRUENT",669,0.9
5,1,1,1,70,"Male",0,65,"DOUBLE","CONGRUENT",632,0.9
5,1,1,1,70,"Male",0,32,"NOCUE","CONGRUENT",603,0.9
5,1,1,1,70,"Male",0,36,"DOUBLE","CONGRUENT",620,0.9
5,1,1,1,70,"Male",0,48,"SPATIAL","INCONGRUENT",792,0.9
5,1,1,1,70,"Male",0,89,"NOCUE","INCONGRUENT",1068,0.9
5,1,1,1,70,"Male",0,16,"SPATIAL","INCONGRUENT",709,0.9
5,1,1,1,70,"Male",0,57,"NOCUE","INCONGRUENT",533,0.9
5,1,1,1,70,"Male",0,91,"SPATIAL","CONGRUENT",668,0.9
5,1,1,1,70,"Male",0,67,"CENTRAL","INCONGRUENT",516,0.9
5,1,1,1,70,"Male",0,93,"DOUBLE","CONGRUENT",1163,0.9
5,1,1,1,70,"Male",0,69,"NOCUE","CONGRUENT",724,0.9
5,1,1,1,70,"Male",0,37,"NOCUE","INCONGRUENT",672,0.9
5,1,1,1,70,"Male",0,46,"CENTRAL","INCONGRUENT",651,0.9
5,1,1,1,70,"Male",0,79,"NOCUE","INCONGRUENT",977,0.9
5,1,1,1,70,"Male",0,29,"NOCUE","CONGRUENT",1009,0.9
5,1,1,1,70,"Male",0,24,"DOUBLE","INCONGRUENT",583,0.9
5,1,1,1,70,"Male",0,41,"SPATIAL","INCONGRUENT",813,0.9
5,1,1,1,70,"Male",0,72,"CENTRAL","CONGRUENT",673,0.9
5,1,1,1,70,"Male",0,2,"CENTRAL","CONGRUENT",693,0.9
5,1,1,1,70,"Male",0,83,"SPATIAL","CONGRUENT",638,0.9
5,1,1,1,70,"Male",0,13,"SPATIAL","CONGRUENT",710,0.9
5,1,1,1,70,"Male",0,5,"NOCUE","CONGRUENT",922,0.9
5,1,1,1,70,"Male",0,64,"NOCUE","INCONGRUENT",835,0.9
5,1,1,1,70,"Male",0,50,"DOUBLE","CONGRUENT",750,0.9
5,1,1,1,70,"Male",0,96,"DOUBLE","CONGRUENT",783,0.9
5,1,1,1,70,"Male",0,51,"NOCUE","INCONGRUENT",790,0.9
5,1,1,1,70,"Male",0,86,"NOCUE","CONGRUENT",673,0.9
5,1,1,1,70,"Male",0,95,"SPATIAL","CONGRUENT",961,0.9
5,1,1,1,70,"Male",0,77,"SPATIAL","INCONGRUENT",752,0.9
5,1,1,1,70,"Male",0,1,"DOUBLE","CONGRUENT",873,0.9
5,1,1,1,70,"Male",0,82,"NOCUE","INCONGRUENT",686,0.9
5,1,1,1,70,"Male",0,74,"NOCUE","INCONGRUENT",593,0.9
5,1,1,1,70,"Male",0,81,"CENTRAL","INCONGRUENT",623,0.9
5,1,1,1,70,"Male",0,73,"DOUBLE","CONGRUENT",553,0.9
5,1,1,1,70,"Male",0,56,"DOUBLE","INCONGRUENT",601,0.9
5,1,1,1,70,"Male",0,59,"DOUBLE","INCONGRUENT",627,0.9
5,1,1,1,70,"Male",0,55,"CENTRAL","CONGRUENT",850,0.9
5,1,1,1,70,"Male",0,12,"SPATIAL","INCONGRUENT",710,0.9
5,1,1,1,70,"Male",0,10,"CENTRAL","CONGRUENT",658,0.9
5,1,1,1,70,"Male",0,11,"NOCUE","INCONGRUENT",646,0.9
5,1,1,1,70,"Male",0,85,"NOCUE","CONGRUENT",567,0.9
5,1,1,1,70,"Male",0,6,"NOCUE","CONGRUENT",748,0.9
5,1,1,1,70,"Male",0,39,"DOUBLE","INCONGRUENT",726,0.9
5,1,1,1,70,"Male",0,84,"CENTRAL","CONGRUENT",879,0.9
5,1,1,1,70,"Male",0,40,"DOUBLE","CONGRUENT",654,0.9
5,1,1,1,70,"Male",0,62,"SPATIAL","INCONGRUENT",657,0.9
5,1,1,1,70,"Male",0,76,"DOUBLE","INCONGRUENT",743,0.9
5,0,1,1,70,"Male",0,92,"CENTRAL","CONGRUENT",NA,0.9
5,1,1,1,70,"Male",0,49,"CENTRAL","INCONGRUENT",544,0.9
5,1,1,1,70,"Male",0,52,"CENTRAL","CONGRUENT",735,0.9
5,1,1,1,70,"Male",0,68,"CENTRAL","INCONGRUENT",699,0.9
5,1,1,1,70,"Male",0,43,"DOUBLE","INCONGRUENT",973,0.9
5,1,1,1,70,"Male",0,3,"NOCUE","CONGRUENT",660,0.9
5,1,1,1,70,"Male",0,66,"SPATIAL","CONGRUENT",562,0.9
5,0,1,1,70,"Male",0,4,"DOUBLE","INCONGRUENT",NA,0.9
5,1,1,1,70,"Male",0,33,"SPATIAL","CONGRUENT",583,0.9
5,0,1,1,70,"Male",0,94,"SPATIAL","CONGRUENT",NA,0.9
5,1,1,1,70,"Male",0,31,"SPATIAL","INCONGRUENT",563,0.9
5,1,1,1,70,"Male",0,44,"NOCUE","INCONGRUENT",657,0.9
5,1,1,1,70,"Male",0,70,"DOUBLE","CONGRUENT",629,0.9
5,1,1,1,70,"Male",0,45,"CENTRAL","INCONGRUENT",1046,0.9
5,1,1,1,70,"Male",0,18,"CENTRAL","INCONGRUENT",810,0.9
5,1,1,1,70,"Male",0,54,"NOCUE","CONGRUENT",880,0.9
5,1,1,1,70,"Male",0,61,"DOUBLE","CONGRUENT",669,0.9
5,1,1,1,70,"Male",0,7,"SPATIAL","INCONGRUENT",833,0.9
5,1,1,1,70,"Male",0,53,"NOCUE","CONGRUENT",610,0.9
5,1,1,1,70,"Male",0,34,"DOUBLE","INCONGRUENT",844,0.9
5,1,1,1,70,"Male",0,21,"SPATIAL","INCONGRUENT",624,0.9
5,1,1,1,70,"Male",0,87,"SPATIAL","CONGRUENT",803,0.9
5,1,1,1,70,"Male",0,42,"NOCUE","CONGRUENT",644,0.9
5,1,1,1,70,"Male",0,75,"DOUBLE","INCONGRUENT",703,0.9
5,1,1,1,70,"Male",0,25,"DOUBLE","INCONGRUENT",561,0.9
5,1,1,1,70,"Male",0,47,"SPATIAL","CONGRUENT",856,0.9
5,1,1,1,70,"Male",0,9,"CENTRAL","INCONGRUENT",603,0.9
5,1,1,1,70,"Male",0,30,"DOUBLE","INCONGRUENT",582,0.9
5,0,1,1,70,"Male",0,28,"NOCUE","INCONGRUENT",NA,0.9
5,1,1,1,70,"Male",0,8,"NOCUE","INCONGRUENT",540,0.9
5,1,1,1,70,"Male",0,20,"SPATIAL","INCONGRUENT",572,0.9
5,1,1,1,70,"Male",0,88,"SPATIAL","CONGRUENT",530,0.9
5,1,1,1,70,"Male",0,15,"CENTRAL","CONGRUENT",668,0.9
5,1,1,1,70,"Male",0,90,"NOCUE","CONGRUENT",818,0.9
5,1,1,1,70,"Male",0,78,"SPATIAL","INCONGRUENT",622,0.9
5,1,1,1,70,"Male",0,27,"CENTRAL","INCONGRUENT",788,0.9
5,1,1,1,70,"Male",0,38,"CENTRAL","CONGRUENT",611,0.9
5,1,1,1,70,"Male",0,22,"CENTRAL","INCONGRUENT",600,0.9
5,1,1,1,70,"Male",0,26,"SPATIAL","INCONGRUENT",594,0.9
5,1,1,1,70,"Male",0,58,"DOUBLE","CONGRUENT",672,0.9
6,1,1,1,70,"Male",16,74,"SPATIAL","CONGRUENT",684,NA
6,1,1,1,70,"Male",16,34,"DOUBLE","CONGRUENT",578,NA
6,1,1,1,70,"Male",16,84,"CENTRAL","CONGRUENT",670,NA
6,1,1,1,70,"Male",16,82,"NOCUE","CONGRUENT",860,NA
6,1,1,1,70,"Male",16,73,"SPATIAL","CONGRUENT",757,NA
6,1,1,1,70,"Male",16,33,"SPATIAL","CONGRUENT",456,NA
6,1,1,1,70,"Male",16,48,"SPATIAL","INCONGRUENT",535,NA
6,1,1,1,70,"Male",16,70,"DOUBLE","INCONGRUENT",835,NA
6,1,1,1,70,"Male",16,86,"DOUBLE","CONGRUENT",758,NA
6,0,1,1,70,"Male",16,83,"CENTRAL","INCONGRUENT",NA,NA
6,1,1,1,70,"Male",16,77,"DOUBLE","CONGRUENT",559,NA
6,1,1,1,70,"Male",16,69,"CENTRAL","INCONGRUENT",702,NA
6,1,1,1,70,"Male",16,71,"CENTRAL","INCONGRUENT",603,NA
6,1,1,1,70,"Male",16,28,"DOUBLE","CONGRUENT",476,NA
6,1,1,1,70,"Male",16,49,"DOUBLE","CONGRUENT",579,NA
6,1,1,1,70,"Male",16,45,"NOCUE","INCONGRUENT",672,NA
6,1,1,1,70,"Male",16,38,"NOCUE","CONGRUENT",860,NA
6,1,1,1,70,"Male",16,46,"NOCUE","CONGRUENT",519,NA
6,1,1,1,70,"Male",16,76,"CENTRAL","INCONGRUENT",665,NA
6,1,1,1,70,"Male",16,75,"SPATIAL","INCONGRUENT",743,NA
6,1,1,1,70,"Male",16,72,"SPATIAL","INCONGRUENT",738,NA
6,1,1,1,70,"Male",16,56,"CENTRAL","CONGRUENT",590,NA
6,1,1,1,70,"Male",16,23,"NOCUE","CONGRUENT",670,NA
6,1,1,1,70,"Male",16,85,"NOCUE","INCONGRUENT",684,NA
6,1,1,1,70,"Male",16,68,"SPATIAL","CONGRUENT",999,NA
6,1,1,1,70,"Male",16,44,"DOUBLE","INCONGRUENT",542,NA
6,1,1,1,70,"Male",16,80,"SPATIAL","INCONGRUENT",597,NA
6,1,1,1,70,"Male",16,24,"SPATIAL","INCONGRUENT",869,NA
6,1,1,1,70,"Male",16,88,"SPATIAL","INCONGRUENT",602,NA
6,1,1,1,70,"Male",16,32,"CENTRAL","INCONGRUENT",687,NA
6,1,1,1,70,"Male",16,36,"DOUBLE","CONGRUENT",721,NA
6,1,1,1,70,"Male",16,52,"SPATIAL","CONGRUENT",683,NA
6,1,1,1,70,"Male",16,27,"SPATIAL","CONGRUENT",472,NA
6,1,1,1,70,"Male",16,35,"NOCUE","INCONGRUENT",918,NA
6,1,1,1,70,"Male",16,22,"NOCUE","INCONGRUENT",823,NA
6,1,1,1,70,"Male",16,37,"DOUBLE","INCONGRUENT",745,NA
6,1,1,1,70,"Male",16,39,"NOCUE","INCONGRUENT",606,NA
6,1,1,1,70,"Male",16,43,"DOUBLE","CONGRUENT",654,NA
6,1,1,1,70,"Male",16,81,"DOUBLE","INCONGRUENT",669,NA
6,1,1,1,70,"Male",16,54,"CENTRAL","INCONGRUENT",706,NA
6,1,1,1,70,"Male",16,31,"DOUBLE","CONGRUENT",732,NA
6,1,1,1,70,"Male",16,87,"SPATIAL","INCONGRUENT",853,NA
6,1,1,1,70,"Male",16,18,"NOCUE","INCONGRUENT",659,NA
6,1,1,1,70,"Male",16,90,"CENTRAL","CONGRUENT",789,NA
6,1,1,1,70,"Male",16,66,"SPATIAL","INCONGRUENT",576,NA
6,1,1,1,70,"Male",16,29,"NOCUE","CONGRUENT",579,NA
6,1,1,1,70,"Male",16,58,"CENTRAL","INCONGRUENT",832,NA
6,1,1,1,70,"Male",16,96,"CENTRAL","INCONGRUENT",735,NA
6,1,1,1,70,"Male",16,95,"NOCUE","INCONGRUENT",660,NA
6,1,1,1,70,"Male",16,12,"DOUBLE","CONGRUENT",779,NA
6,1,1,1,70,"Male",16,47,"DOUBLE","CONGRUENT",451,NA
6,1,1,1,70,"Male",16,41,"SPATIAL","CONGRUENT",1002,NA
6,1,1,1,70,"Male",16,55,"DOUBLE","INCONGRUENT",968,NA
6,1,1,1,70,"Male",16,53,"CENTRAL","CONGRUENT",653,NA
6,1,1,1,70,"Male",16,17,"DOUBLE","CONGRUENT",715,NA
6,1,1,1,70,"Male",16,30,"DOUBLE","CONGRUENT",592,NA
6,1,1,1,70,"Male",16,26,"CENTRAL","CONGRUENT",588,NA
6,1,1,1,70,"Male",16,13,"CENTRAL","CONGRUENT",645,NA
6,1,1,1,70,"Male",16,67,"SPATIAL","INCONGRUENT",581,NA
6,1,1,1,70,"Male",16,93,"SPATIAL","INCONGRUENT",689,NA
6,1,1,1,70,"Male",16,62,"SPATIAL","INCONGRUENT",569,NA
6,1,1,1,70,"Male",16,2,"CENTRAL","CONGRUENT",544,NA
6,1,1,1,70,"Male",16,94,"CENTRAL","CONGRUENT",712,NA
6,1,1,1,70,"Male",16,1,"CENTRAL","CONGRUENT",793,NA
6,1,1,1,70,"Male",16,40,"NOCUE","INCONGRUENT",763,NA
6,1,1,1,70,"Male",16,3,"NOCUE","INCONGRUENT",494,NA
6,1,1,1,70,"Male",16,42,"CENTRAL","CONGRUENT",622,NA
6,1,1,1,70,"Male",16,79,"SPATIAL","INCONGRUENT",556,NA
6,1,1,1,70,"Male",16,89,"DOUBLE","INCONGRUENT",686,NA
6,1,1,1,70,"Male",16,10,"NOCUE","INCONGRUENT",687,NA
6,1,1,1,70,"Male",16,20,"NOCUE","INCONGRUENT",898,NA
6,1,1,1,70,"Male",16,57,"CENTRAL","CONGRUENT",749,NA
6,1,1,1,70,"Male",16,60,"CENTRAL","INCONGRUENT",897,NA
6,1,1,1,70,"Male",16,16,"NOCUE","CONGRUENT",842,NA
6,1,1,1,70,"Male",16,14,"SPATIAL","CONGRUENT",915,NA
6,1,1,1,70,"Male",16,63,"CENTRAL","INCONGRUENT",771,NA
6,1,1,1,70,"Male",16,11,"NOCUE","CONGRUENT",777,NA
6,1,1,1,70,"Male",16,19,"DOUBLE","INCONGRUENT",803,NA
6,1,1,1,70,"Male",16,59,"SPATIAL","CONGRUENT",850,NA
6,1,1,1,70,"Male",16,50,"SPATIAL","CONGRUENT",562,NA
6,1,1,1,70,"Male",16,51,"SPATIAL","CONGRUENT",788,NA
6,1,1,1,70,"Male",16,21,"CENTRAL","INCONGRUENT",755,NA
6,1,1,1,70,"Male",16,25,"CENTRAL","CONGRUENT",648,NA
6,1,1,1,70,"Male",16,5,"DOUBLE","INCONGRUENT",736,NA
6,1,1,1,70,"Male",16,91,"DOUBLE","INCONGRUENT",661,NA
6,1,1,1,70,"Male",16,15,"NOCUE","INCONGRUENT",666,NA
6,1,1,1,70,"Male",16,6,"CENTRAL","INCONGRUENT",773,NA
6,1,1,1,70,"Male",16,9,"NOCUE","CONGRUENT",820,NA
6,1,1,1,70,"Male",16,7,"NOCUE","CONGRUENT",819,NA
6,1,1,1,70,"Male",16,4,"DOUBLE","INCONGRUENT",1095,NA
6,1,1,1,70,"Male",16,78,"NOCUE","CONGRUENT",579,NA
6,1,1,1,70,"Male",16,92,"NOCUE","CONGRUENT",756,NA
6,1,1,1,70,"Male",16,61,"DOUBLE","INCONGRUENT",701,NA
6,1,1,1,70,"Male",16,8,"SPATIAL","CONGRUENT",812,NA
6,1,1,1,70,"Male",16,64,"NOCUE","CONGRUENT",684,NA
6,1,1,1,70,"Male",16,65,"DOUBLE","INCONGRUENT",827,NA
7,1,1,1,82,"Male",9,23,"CENTRAL","CONGRUENT",811,0.2
7,0,1,1,82,"Male",9,51,"CENTRAL","INCONGRUENT",NA,0.2
7,1,1,1,82,"Male",9,32,"DOUBLE","INCONGRUENT",1243,0.2
7,1,1,1,82,"Male",9,28,"SPATIAL","CONGRUENT",1051,0.2
7,1,1,1,82,"Male",9,82,"SPATIAL","INCONGRUENT",939,0.2
7,1,1,1,82,"Male",9,40,"CENTRAL","CONGRUENT",1073,0.2
7,1,1,1,82,"Male",9,44,"SPATIAL","INCONGRUENT",949,0.2
7,1,1,1,82,"Male",9,54,"SPATIAL","CONGRUENT",1510,0.2
7,1,1,1,82,"Male",9,88,"DOUBLE","CONGRUENT",1337,0.2
7,1,1,1,82,"Male",9,64,"DOUBLE","INCONGRUENT",891,0.2
7,1,1,1,82,"Male",9,15,"NOCUE","CONGRUENT",914,0.2
7,1,1,1,82,"Male",9,41,"NOCUE","INCONGRUENT",937,0.2
7,1,1,1,82,"Male",9,48,"DOUBLE","CONGRUENT",1115,0.2
7,1,1,1,82,"Male",9,68,"CENTRAL","CONGRUENT",864,0.2
7,1,1,1,82,"Male",9,9,"CENTRAL","CONGRUENT",1096,0.2
7,1,1,1,82,"Male",9,5,"CENTRAL","INCONGRUENT",1577,0.2
7,1,1,1,82,"Male",9,78,"SPATIAL","INCONGRUENT",1174,0.2
7,1,1,1,82,"Male",9,37,"NOCUE","INCONGRUENT",1181,0.2
7,1,1,1,82,"Male",9,31,"DOUBLE","INCONGRUENT",1019,0.2
7,1,1,1,82,"Male",9,67,"NOCUE","CONGRUENT",1228,0.2
7,1,1,1,82,"Male",9,30,"SPATIAL","CONGRUENT",1081,0.2
7,1,1,1,82,"Male",9,62,"SPATIAL","CONGRUENT",1081,0.2
7,1,1,1,82,"Male",9,22,"CENTRAL","CONGRUENT",1255,0.2
7,1,1,1,82,"Male",9,83,"SPATIAL","CONGRUENT",659,0.2
7,1,1,1,82,"Male",9,1,"DOUBLE","INCONGRUENT",1320,0.2
7,1,1,1,82,"Male",9,84,"CENTRAL","INCONGRUENT",1027,0.2
7,1,1,1,82,"Male",9,61,"CENTRAL","INCONGRUENT",1247,0.2
7,1,1,1,82,"Male",9,74,"CENTRAL","CONGRUENT",955,0.2
7,1,1,1,82,"Male",9,11,"SPATIAL","CONGRUENT",958,0.2
7,1,1,1,82,"Male",9,13,"CENTRAL","CONGRUENT",1393,0.2
7,1,1,1,82,"Male",9,36,"DOUBLE","CONGRUENT",1092,0.2
7,1,1,1,82,"Male",9,42,"CENTRAL","INCONGRUENT",983,0.2
7,1,1,1,82,"Male",9,93,"SPATIAL","INCONGRUENT",933,0.2
7,1,1,1,82,"Male",9,45,"CENTRAL","INCONGRUENT",953,0.2
7,1,1,1,82,"Male",9,20,"NOCUE","CONGRUENT",927,0.2
7,1,1,1,82,"Male",9,69,"SPATIAL","INCONGRUENT",1086,0.2
7,0,1,1,82,"Male",9,49,"DOUBLE","INCONGRUENT",NA,0.2
7,1,1,1,82,"Male",9,55,"NOCUE","INCONGRUENT",1132,0.2
7,1,1,1,82,"Male",9,91,"DOUBLE","INCONGRUENT",1386,0.2
7,1,1,1,82,"Male",9,2,"NOCUE","INCONGRUENT",1095,0.2
7,1,1,1,82,"Male",9,63,"NOCUE","INCONGRUENT",1337,0.2
7,1,1,1,82,"Male",9,85,"CENTRAL","INCONGRUENT",1132,0.2
7,1,1,1,82,"Male",9,86,"CENTRAL","CONGRUENT",902,0.2
7,1,1,1,82,"Male",9,46,"SPATIAL","CONGRUENT",1258,0.2
7,1,1,1,82,"Male",9,35,"CENTRAL","CONGRUENT",852,0.2
7,1,1,1,82,"Male",9,21,"CENTRAL","CONGRUENT",945,0.2
7,1,1,1,82,"Male",9,25,"SPATIAL","CONGRUENT",1399,0.2
7,1,1,1,82,"Male",9,77,"SPATIAL","INCONGRUENT",1162,0.2
7,1,1,1,82,"Male",9,57,"NOCUE","INCONGRUENT",1083,0.2
7,1,1,1,82,"Male",9,59,"DOUBLE","INCONGRUENT",1081,0.2
7,1,1,1,82,"Male",9,38,"NOCUE","CONGRUENT",902,0.2
7,1,1,1,82,"Male",9,14,"DOUBLE","CONGRUENT",1182,0.2
7,1,1,1,82,"Male",9,72,"CENTRAL","INCONGRUENT",1183,0.2
7,1,1,1,82,"Male",9,92,"NOCUE","CONGRUENT",1324,0.2
7,1,1,1,82,"Male",9,73,"CENTRAL","INCONGRUENT",865,0.2
7,1,1,1,82,"Male",9,71,"NOCUE","INCONGRUENT",1163,0.2
7,1,1,1,82,"Male",9,10,"CENTRAL","INCONGRUENT",958,0.2
7,1,1,1,82,"Male",9,19,"NOCUE","INCONGRUENT",1014,0.2
7,1,1,1,82,"Male",9,95,"DOUBLE","CONGRUENT",972,0.2
7,1,1,1,82,"Male",9,7,"DOUBLE","CONGRUENT",910,0.2
7,1,1,1,82,"Male",9,43,"NOCUE","INCONGRUENT",950,0.2
7,1,1,1,82,"Male",9,96,"NOCUE","INCONGRUENT",960,0.2
7,1,1,1,82,"Male",9,56,"NOCUE","CONGRUENT",1159,0.2
7,1,1,1,82,"Male",9,26,"DOUBLE","CONGRUENT",1012,0.2
7,1,1,1,82,"Male",9,76,"SPATIAL","CONGRUENT",1405,0.2
7,1,1,1,82,"Male",9,18,"DOUBLE","CONGRUENT",1166,0.2
7,1,1,1,82,"Male",9,90,"SPATIAL","INCONGRUENT",779,0.2
7,1,1,1,82,"Male",9,81,"DOUBLE","INCONGRUENT",978,0.2
7,1,1,1,82,"Male",9,75,"NOCUE","CONGRUENT",1176,0.2
7,1,1,1,82,"Male",9,79,"SPATIAL","CONGRUENT",1126,0.2
7,1,1,1,82,"Male",9,39,"SPATIAL","INCONGRUENT",935,0.2
7,1,1,1,82,"Male",9,3,"CENTRAL","CONGRUENT",1071,0.2
7,1,1,1,82,"Male",9,70,"SPATIAL","CONGRUENT",763,0.2
7,1,1,1,82,"Male",9,60,"NOCUE","CONGRUENT",1088,0.2
7,1,1,1,82,"Male",9,4,"DOUBLE","CONGRUENT",929,0.2
7,1,1,1,82,"Male",9,16,"NOCUE","CONGRUENT",1013,0.2
7,1,1,1,82,"Male",9,53,"NOCUE","INCONGRUENT",701,0.2
7,1,1,1,82,"Male",9,58,"DOUBLE","CONGRUENT",1016,0.2
7,1,1,1,82,"Male",9,89,"SPATIAL","INCONGRUENT",685,0.2
7,1,1,1,82,"Male",9,94,"SPATIAL","INCONGRUENT",1062,0.2
7,1,1,1,82,"Male",9,33,"NOCUE","INCONGRUENT",1160,0.2
7,1,1,1,82,"Male",9,27,"NOCUE","CONGRUENT",997,0.2
7,1,1,1,82,"Male",9,8,"DOUBLE","INCONGRUENT",662,0.2
7,1,1,1,82,"Male",9,80,"SPATIAL","INCONGRUENT",1030,0.2
7,1,1,1,82,"Male",9,6,"CENTRAL","INCONGRUENT",828,0.2
7,1,1,1,82,"Male",9,12,"CENTRAL","INCONGRUENT",1277,0.2
7,1,1,1,82,"Male",9,34,"NOCUE","CONGRUENT",795,0.2
7,1,1,1,82,"Male",9,65,"NOCUE","CONGRUENT",1314,0.2
7,1,1,1,82,"Male",9,29,"DOUBLE","INCONGRUENT",1071,0.2
7,1,1,1,82,"Male",9,47,"DOUBLE","CONGRUENT",905,0.2
7,1,1,1,82,"Male",9,17,"DOUBLE","INCONGRUENT",711,0.2
8,1,1,1,69,"Female",9,45,"SPATIAL","INCONGRUENT",695,NA
8,1,1,1,69,"Female",9,92,"NOCUE","CONGRUENT",572,NA
8,1,1,1,69,"Female",9,44,"NOCUE","INCONGRUENT",835,NA
8,1,1,1,69,"Female",9,5,"NOCUE","CONGRUENT",826,NA
8,1,1,1,69,"Female",9,9,"NOCUE","INCONGRUENT",803,NA
8,1,1,1,69,"Female",9,13,"SPATIAL","INCONGRUENT",760,NA
8,1,1,1,69,"Female",9,94,"DOUBLE","INCONGRUENT",606,NA
8,1,1,1,69,"Female",9,74,"CENTRAL","CONGRUENT",491,NA
8,1,1,1,69,"Female",9,12,"NOCUE","INCONGRUENT",536,NA
8,1,1,1,69,"Female",9,10,"CENTRAL","INCONGRUENT",772,NA
8,1,1,1,69,"Female",9,73,"CENTRAL","CONGRUENT",633,NA
8,1,1,1,69,"Female",9,7,"CENTRAL","INCONGRUENT",730,NA
8,1,1,1,69,"Female",9,43,"SPATIAL","INCONGRUENT",620,NA
8,1,1,1,69,"Female",9,29,"CENTRAL","INCONGRUENT",748,NA
8,1,1,1,69,"Female",9,46,"CENTRAL","CONGRUENT",558,NA
8,1,1,1,69,"Female",9,6,"DOUBLE","CONGRUENT",820,NA
8,1,1,1,69,"Female",9,40,"CENTRAL","CONGRUENT",634,NA
8,1,1,1,69,"Female",9,41,"SPATIAL","INCONGRUENT",584,NA
8,1,1,1,69,"Female",9,93,"CENTRAL","CONGRUENT",548,NA
8,1,1,1,69,"Female",9,70,"NOCUE","CONGRUENT",601,NA
8,1,1,1,69,"Female",9,49,"SPATIAL","CONGRUENT",577,NA
8,1,1,1,69,"Female",9,88,"SPATIAL","CONGRUENT",535,NA
8,1,1,1,69,"Female",9,11,"DOUBLE","INCONGRUENT",847,NA
8,1,1,1,69,"Female",9,8,"CENTRAL","INCONGRUENT",672,NA
8,1,1,1,69,"Female",9,15,"NOCUE","INCONGRUENT",643,NA
8,1,1,1,69,"Female",9,42,"NOCUE","CONGRUENT",531,NA
8,1,1,1,69,"Female",9,3,"CENTRAL","INCONGRUENT",764,NA
8,1,1,1,69,"Female",9,51,"NOCUE","INCONGRUENT",576,NA
8,1,1,1,69,"Female",9,36,"NOCUE","INCONGRUENT",682,NA
8,1,1,1,69,"Female",9,2,"DOUBLE","CONGRUENT",573,NA
8,1,1,1,69,"Female",9,16,"NOCUE","CONGRUENT",693,NA
8,1,1,1,69,"Female",9,21,"CENTRAL","INCONGRUENT",729,NA
8,1,1,1,69,"Female",9,27,"SPATIAL","CONGRUENT",526,NA
8,1,1,1,69,"Female",9,28,"CENTRAL","CONGRUENT",636,NA
8,1,1,1,69,"Female",9,4,"NOCUE","CONGRUENT",794,NA
8,1,1,1,69,"Female",9,72,"CENTRAL","INCONGRUENT",664,NA
8,1,1,1,69,"Female",9,24,"SPATIAL","CONGRUENT",661,NA
8,1,1,1,69,"Female",9,95,"CENTRAL","INCONGRUENT",537,NA
8,1,1,1,69,"Female",9,48,"DOUBLE","CONGRUENT",624,NA
8,1,1,1,69,"Female",9,96,"SPATIAL","CONGRUENT",597,NA
8,1,1,1,69,"Female",9,50,"NOCUE","INCONGRUENT",591,NA
8,1,1,1,69,"Female",9,1,"DOUBLE","INCONGRUENT",894,NA
8,1,1,1,69,"Female",9,37,"DOUBLE","CONGRUENT",648,NA
8,1,1,1,69,"Female",9,84,"SPATIAL","CONGRUENT",620,NA
8,1,1,1,69,"Female",9,30,"DOUBLE","CONGRUENT",606,NA
8,1,1,1,69,"Female",9,69,"CENTRAL","CONGRUENT",598,NA
8,1,1,1,69,"Female",9,68,"DOUBLE","INCONGRUENT",628,NA
8,1,1,1,69,"Female",9,67,"SPATIAL","INCONGRUENT",662,NA
8,1,1,1,69,"Female",9,47,"DOUBLE","INCONGRUENT",734,NA
8,1,1,1,69,"Female",9,57,"CENTRAL","INCONGRUENT",637,NA
8,1,1,1,69,"Female",9,14,"SPATIAL","CONGRUENT",658,NA
8,1,1,1,69,"Female",9,91,"DOUBLE","INCONGRUENT",475,NA
8,1,1,1,69,"Female",9,89,"SPATIAL","CONGRUENT",506,NA
8,1,1,1,69,"Female",9,90,"DOUBLE","INCONGRUENT",576,NA
8,1,1,1,69,"Female",9,76,"SPATIAL","INCONGRUENT",651,NA
8,1,1,1,69,"Female",9,83,"SPATIAL","INCONGRUENT",587,NA
8,1,1,1,69,"Female",9,35,"DOUBLE","CONGRUENT",594,NA
8,1,1,1,69,"Female",9,82,"DOUBLE","CONGRUENT",530,NA
8,1,1,1,69,"Female",9,81,"SPATIAL","INCONGRUENT",531,NA
8,1,1,1,69,"Female",9,80,"DOUBLE","CONGRUENT",664,NA
8,1,1,1,69,"Female",9,66,"NOCUE","INCONGRUENT",534,NA
8,1,1,1,69,"Female",9,85,"NOCUE","INCONGRUENT",570,NA
8,1,1,1,69,"Female",9,54,"NOCUE","INCONGRUENT",545,NA
8,1,1,1,69,"Female",9,23,"CENTRAL","INCONGRUENT",713,NA
8,1,1,1,69,"Female",9,71,"CENTRAL","INCONGRUENT",435,NA
8,1,1,1,69,"Female",9,63,"DOUBLE","INCONGRUENT",637,NA
8,1,1,1,69,"Female",9,38,"SPATIAL","CONGRUENT",493,NA
8,1,1,1,69,"Female",9,39,"DOUBLE","INCONGRUENT",614,NA
8,1,1,1,69,"Female",9,77,"SPATIAL","INCONGRUENT",604,NA
8,1,1,1,69,"Female",9,79,"DOUBLE","INCONGRUENT",683,NA
8,1,1,1,69,"Female",9,18,"NOCUE","CONGRUENT",624,NA
8,1,1,1,69,"Female",9,20,"DOUBLE","INCONGRUENT",515,NA
8,1,1,1,69,"Female",9,26,"CENTRAL","CONGRUENT",581,NA
8,1,1,1,69,"Female",9,87,"NOCUE","CONGRUENT",473,NA
8,1,1,1,69,"Female",9,61,"NOCUE","INCONGRUENT",784,NA
8,1,1,1,69,"Female",9,34,"NOCUE","INCONGRUENT",656,NA
8,1,1,1,69,"Female",9,22,"CENTRAL","CONGRUENT",563,NA
8,1,1,1,69,"Female",9,19,"NOCUE","CONGRUENT",505,NA
8,1,1,1,69,"Female",9,58,"SPATIAL","CONGRUENT",592,NA
8,1,1,1,69,"Female",9,56,"CENTRAL","CONGRUENT",680,NA
8,1,1,1,69,"Female",9,86,"DOUBLE","INCONGRUENT",576,NA
8,1,1,1,69,"Female",9,65,"SPATIAL","INCONGRUENT",540,NA
8,1,1,1,69,"Female",9,62,"SPATIAL","CONGRUENT",570,NA
8,1,1,1,69,"Female",9,17,"NOCUE","CONGRUENT",577,NA
8,1,1,1,69,"Female",9,31,"NOCUE","CONGRUENT",591,NA
8,1,1,1,69,"Female",9,75,"CENTRAL","CONGRUENT",583,NA
8,1,1,1,69,"Female",9,32,"NOCUE","CONGRUENT",511,NA
8,1,1,1,69,"Female",9,25,"CENTRAL","INCONGRUENT",688,NA
8,1,1,1,69,"Female",9,59,"CENTRAL","CONGRUENT",600,NA
8,1,1,1,69,"Female",9,53,"SPATIAL","INCONGRUENT",565,NA
8,1,1,1,69,"Female",9,33,"SPATIAL","INCONGRUENT",758,NA
8,1,1,1,69,"Female",9,64,"DOUBLE","CONGRUENT",551,NA
8,1,1,1,69,"Female",9,60,"DOUBLE","CONGRUENT",484,NA
8,1,1,1,69,"Female",9,52,"DOUBLE","CONGRUENT",543,NA
8,1,1,1,69,"Female",9,55,"DOUBLE","CONGRUENT",480,NA
8,1,1,1,69,"Female",9,78,"SPATIAL","CONGRUENT",506,NA
9,1,1,1,74,"Male",7,90,"CENTRAL","INCONGRUENT",827,0.8
9,1,1,1,74,"Male",7,54,"SPATIAL","INCONGRUENT",804,0.8
9,1,1,1,74,"Male",7,46,"CENTRAL","INCONGRUENT",573,0.8
9,1,1,1,74,"Male",7,56,"CENTRAL","INCONGRUENT",660,0.8
9,1,1,1,74,"Male",7,94,"NOCUE","INCONGRUENT",669,0.8
9,1,1,1,74,"Male",7,1,"DOUBLE","CONGRUENT",785,0.8
9,1,1,1,74,"Male",7,95,"DOUBLE","INCONGRUENT",636,0.8
9,1,1,1,74,"Male",7,9,"SPATIAL","CONGRUENT",721,0.8
9,1,1,1,74,"Male",7,36,"DOUBLE","INCONGRUENT",567,0.8
9,1,1,1,74,"Male",7,50,"NOCUE","CONGRUENT",596,0.8
9,1,1,1,74,"Male",7,82,"NOCUE","CONGRUENT",816,0.8
9,1,1,1,74,"Male",7,59,"NOCUE","INCONGRUENT",879,0.8
9,1,1,1,74,"Male",7,34,"CENTRAL","CONGRUENT",578,0.8
9,1,1,1,74,"Male",7,3,"NOCUE","CONGRUENT",535,0.8
9,1,1,1,74,"Male",7,87,"CENTRAL","CONGRUENT",620,0.8
9,1,1,1,74,"Male",7,27,"CENTRAL","CONGRUENT",609,0.8
9,1,1,1,74,"Male",7,49,"DOUBLE","CONGRUENT",747,0.8
9,1,1,1,74,"Male",7,11,"DOUBLE","INCONGRUENT",716,0.8
9,1,1,1,74,"Male",7,55,"SPATIAL","CONGRUENT",866,0.8
9,1,1,1,74,"Male",7,65,"DOUBLE","INCONGRUENT",560,0.8
9,1,1,1,74,"Male",7,74,"DOUBLE","INCONGRUENT",524,0.8
9,1,1,1,74,"Male",7,71,"SPATIAL","INCONGRUENT",623,0.8
9,1,1,1,74,"Male",7,12,"CENTRAL","CONGRUENT",634,0.8
9,1,1,1,74,"Male",7,21,"NOCUE","INCONGRUENT",669,0.8
9,1,1,1,74,"Male",7,62,"NOCUE","CONGRUENT",691,0.8
9,1,1,1,74,"Male",7,88,"SPATIAL","CONGRUENT",630,0.8
9,1,1,1,74,"Male",7,10,"CENTRAL","CONGRUENT",777,0.8
9,1,1,1,74,"Male",7,57,"SPATIAL","INCONGRUENT",527,0.8
9,1,1,1,74,"Male",7,61,"DOUBLE","INCONGRUENT",609,0.8
9,1,1,1,74,"Male",7,77,"CENTRAL","CONGRUENT",608,0.8
9,1,1,1,74,"Male",7,85,"CENTRAL","CONGRUENT",500,0.8
9,1,1,1,74,"Male",7,26,"NOCUE","CONGRUENT",585,0.8
9,1,1,1,74,"Male",7,5,"SPATIAL","CONGRUENT",984,0.8
9,1,1,1,74,"Male",7,37,"DOUBLE","INCONGRUENT",725,0.8
9,1,1,1,74,"Male",7,13,"CENTRAL","CONGRUENT",775,0.8
9,1,1,1,74,"Male",7,72,"SPATIAL","CONGRUENT",531,0.8
9,1,1,1,74,"Male",7,76,"CENTRAL","INCONGRUENT",962,0.8
9,1,1,1,74,"Male",7,78,"DOUBLE","CONGRUENT",731,0.8
9,1,1,1,74,"Male",7,84,"NOCUE","CONGRUENT",725,0.8
9,1,1,1,74,"Male",7,31,"CENTRAL","INCONGRUENT",690,0.8
9,1,1,1,74,"Male",7,30,"DOUBLE","CONGRUENT",654,0.8
9,1,1,1,74,"Male",7,28,"NOCUE","INCONGRUENT",791,0.8
9,1,1,1,74,"Male",7,40,"SPATIAL","CONGRUENT",970,0.8
9,1,1,1,74,"Male",7,24,"NOCUE","CONGRUENT",578,0.8
9,1,1,1,74,"Male",7,23,"NOCUE","INCONGRUENT",560,0.8
9,1,1,1,74,"Male",7,15,"SPATIAL","INCONGRUENT",850,0.8
9,1,1,1,74,"Male",7,41,"NOCUE","INCONGRUENT",608,0.8
9,1,1,1,74,"Male",7,6,"SPATIAL","INCONGRUENT",928,0.8
9,1,1,1,74,"Male",7,92,"CENTRAL","CONGRUENT",586,0.8
9,1,1,1,74,"Male",7,86,"NOCUE","INCONGRUENT",522,0.8
9,1,1,1,74,"Male",7,96,"SPATIAL","INCONGRUENT",754,0.8
9,0,1,1,74,"Male",7,39,"NOCUE","INCONGRUENT",NA,0.8
9,1,1,1,74,"Male",7,79,"DOUBLE","CONGRUENT",739,0.8
9,1,1,1,74,"Male",7,80,"NOCUE","INCONGRUENT",625,0.8
9,1,1,1,74,"Male",7,22,"CENTRAL","CONGRUENT",619,0.8
9,1,1,1,74,"Male",7,4,"SPATIAL","INCONGRUENT",647,0.8
9,1,1,1,74,"Male",7,25,"CENTRAL","CONGRUENT",655,0.8
9,1,1,1,74,"Male",7,48,"DOUBLE","INCONGRUENT",865,0.8
9,1,1,1,74,"Male",7,16,"NOCUE","CONGRUENT",693,0.8
9,1,1,1,74,"Male",7,42,"DOUBLE","INCONGRUENT",629,0.8
9,1,1,1,74,"Male",7,93,"CENTRAL","CONGRUENT",702,0.8
9,1,1,1,74,"Male",7,67,"CENTRAL","INCONGRUENT",861,0.8
9,1,1,1,74,"Male",7,20,"CENTRAL","INCONGRUENT",569,0.8
9,1,1,1,74,"Male",7,52,"NOCUE","INCONGRUENT",598,0.8
9,1,1,1,74,"Male",7,32,"DOUBLE","INCONGRUENT",679,0.8
9,1,1,1,74,"Male",7,33,"SPATIAL","CONGRUENT",731,0.8
9,1,1,1,74,"Male",7,58,"CENTRAL","INCONGRUENT",1165,0.8
9,1,1,1,74,"Male",7,64,"DOUBLE","INCONGRUENT",902,0.8
9,1,1,1,74,"Male",7,19,"DOUBLE","CONGRUENT",724,0.8
9,1,1,1,74,"Male",7,73,"DOUBLE","CONGRUENT",698,0.8
9,1,1,1,74,"Male",7,38,"DOUBLE","CONGRUENT",580,0.8
9,1,1,1,74,"Male",7,83,"NOCUE","CONGRUENT",656,0.8
9,1,1,1,74,"Male",7,18,"CENTRAL","INCONGRUENT",655,0.8
9,1,1,1,74,"Male",7,81,"SPATIAL","INCONGRUENT",636,0.8
9,1,1,1,74,"Male",7,75,"NOCUE","CONGRUENT",621,0.8
9,1,1,1,74,"Male",7,60,"CENTRAL","INCONGRUENT",587,0.8
9,1,1,1,74,"Male",7,8,"NOCUE","INCONGRUENT",672,0.8
9,1,1,1,74,"Male",7,91,"SPATIAL","CONGRUENT",580,0.8
9,1,1,1,74,"Male",7,29,"DOUBLE","CONGRUENT",587,0.8
9,1,1,1,74,"Male",7,43,"DOUBLE","CONGRUENT",568,0.8
9,1,1,1,74,"Male",7,35,"SPATIAL","INCONGRUENT",658,0.8
9,1,1,1,74,"Male",7,44,"SPATIAL","CONGRUENT",532,0.8
9,1,1,1,74,"Male",7,7,"NOCUE","INCONGRUENT",838,0.8
9,1,1,1,74,"Male",7,70,"CENTRAL","INCONGRUENT",819,0.8
9,1,1,1,74,"Male",7,68,"NOCUE","CONGRUENT",713,0.8
9,1,1,1,74,"Male",7,2,"DOUBLE","CONGRUENT",825,0.8
9,1,1,1,74,"Male",7,51,"SPATIAL","CONGRUENT",557,0.8
9,1,1,1,74,"Male",7,17,"DOUBLE","INCONGRUENT",668,0.8
9,1,1,1,74,"Male",7,89,"SPATIAL","CONGRUENT",582,0.8
9,1,1,1,74,"Male",7,45,"SPATIAL","INCONGRUENT",603,0.8
9,1,1,1,74,"Male",7,66,"CENTRAL","INCONGRUENT",1321,0.8
9,1,1,1,74,"Male",7,63,"NOCUE","CONGRUENT",1499,0.8
9,1,1,1,74,"Male",7,53,"DOUBLE","CONGRUENT",1360,0.8
9,1,1,1,74,"Male",7,69,"SPATIAL","INCONGRUENT",978,0.8
9,1,1,1,74,"Male",7,47,"SPATIAL","CONGRUENT",608,0.8
9,1,1,1,74,"Male",7,14,"SPATIAL","INCONGRUENT",733,0.8
10,1,1,1,67,"Female",12,77,"SPATIAL","INCONGRUENT",567,1
10,1,1,1,67,"Female",12,39,"SPATIAL","INCONGRUENT",548,1
10,1,1,1,67,"Female",12,71,"NOCUE","CONGRUENT",502,1
10,1,1,1,67,"Female",12,8,"NOCUE","INCONGRUENT",429,1
10,1,1,1,67,"Female",12,78,"SPATIAL","INCONGRUENT",649,1
10,1,1,1,67,"Female",12,2,"DOUBLE","INCONGRUENT",647,1
10,1,1,1,67,"Female",12,50,"SPATIAL","CONGRUENT",604,1
10,1,1,1,67,"Female",12,4,"NOCUE","CONGRUENT",557,1
10,1,1,1,67,"Female",12,76,"CENTRAL","INCONGRUENT",729,1
10,1,1,1,67,"Female",12,30,"SPATIAL","INCONGRUENT",640,1
10,1,1,1,67,"Female",12,79,"SPATIAL","CONGRUENT",632,1
10,1,1,1,67,"Female",12,70,"CENTRAL","INCONGRUENT",697,1
10,1,1,1,67,"Female",12,95,"DOUBLE","CONGRUENT",554,1
10,1,1,1,67,"Female",12,60,"DOUBLE","CONGRUENT",621,1
10,1,1,1,67,"Female",12,38,"DOUBLE","INCONGRUENT",517,1
10,1,1,1,67,"Female",12,53,"SPATIAL","CONGRUENT",535,1
10,1,1,1,67,"Female",12,65,"CENTRAL","CONGRUENT",521,1
10,1,1,1,67,"Female",12,74,"DOUBLE","INCONGRUENT",713,1
10,1,1,1,67,"Female",12,40,"CENTRAL","INCONGRUENT",633,1
10,1,1,1,67,"Female",12,13,"NOCUE","CONGRUENT",532,1
10,1,1,1,67,"Female",12,91,"NOCUE","CONGRUENT",585,1
10,0,1,1,67,"Female",12,41,"NOCUE","INCONGRUENT",NA,1
10,1,1,1,67,"Female",12,29,"CENTRAL","INCONGRUENT",750,1
10,1,1,1,67,"Female",12,9,"CENTRAL","INCONGRUENT",510,1
10,1,1,1,67,"Female",12,61,"CENTRAL","INCONGRUENT",619,1
10,1,1,1,67,"Female",12,72,"NOCUE","INCONGRUENT",595,1
10,1,1,1,67,"Female",12,90,"NOCUE","INCONGRUENT",593,1
10,1,1,1,67,"Female",12,10,"NOCUE","CONGRUENT",676,1
10,1,1,1,67,"Female",12,64,"SPATIAL","CONGRUENT",530,1
10,1,1,1,67,"Female",12,89,"SPATIAL","CONGRUENT",458,1
10,1,1,1,67,"Female",12,82,"NOCUE","INCONGRUENT",764,1
10,1,1,1,67,"Female",12,58,"CENTRAL","CONGRUENT",640,1
10,1,1,1,67,"Female",12,52,"CENTRAL","CONGRUENT",598,1
10,1,1,1,67,"Female",12,63,"CENTRAL","CONGRUENT",523,1
10,1,1,1,67,"Female",12,96,"CENTRAL","INCONGRUENT",566,1
10,1,1,1,67,"Female",12,34,"DOUBLE","CONGRUENT",462,1
10,1,1,1,67,"Female",12,73,"NOCUE","INCONGRUENT",540,1
10,1,1,1,67,"Female",12,42,"DOUBLE","INCONGRUENT",512,1
10,1,1,1,67,"Female",12,47,"DOUBLE","CONGRUENT",554,1
10,1,1,1,67,"Female",12,14,"SPATIAL","INCONGRUENT",791,1
10,1,1,1,67,"Female",12,35,"NOCUE","INCONGRUENT",603,1
10,1,1,1,67,"Female",12,80,"CENTRAL","CONGRUENT",651,1
10,1,1,1,67,"Female",12,57,"CENTRAL","INCONGRUENT",716,1
10,1,1,1,67,"Female",12,56,"DOUBLE","CONGRUENT",527,1
10,1,1,1,67,"Female",12,59,"DOUBLE","INCONGRUENT",636,1
10,1,1,1,67,"Female",12,24,"DOUBLE","INCONGRUENT",455,1
10,1,1,1,67,"Female",12,48,"CENTRAL","INCONGRUENT",632,1
10,1,1,1,67,"Female",12,27,"SPATIAL","INCONGRUENT",661,1
10,1,1,1,67,"Female",12,16,"NOCUE","INCONGRUENT",669,1
10,1,1,1,67,"Female",12,75,"DOUBLE","CONGRUENT",521,1
10,1,1,1,67,"Female",12,1,"DOUBLE","CONGRUENT",589,1
10,1,1,1,67,"Female",12,92,"DOUBLE","CONGRUENT",544,1
10,1,1,1,67,"Female",12,18,"SPATIAL","CONGRUENT",544,1
10,1,1,1,67,"Female",12,17,"NOCUE","CONGRUENT",447,1
10,1,1,1,67,"Female",12,36,"NOCUE","CONGRUENT",593,1
10,1,1,1,67,"Female",12,68,"NOCUE","CONGRUENT",511,1
10,1,1,1,67,"Female",12,15,"DOUBLE","INCONGRUENT",661,1
10,1,1,1,67,"Female",12,69,"CENTRAL","CONGRUENT",530,1
10,1,1,1,67,"Female",12,83,"SPATIAL","INCONGRUENT",849,1
10,1,1,1,67,"Female",12,49,"SPATIAL","INCONGRUENT",674,1
10,1,1,1,67,"Female",12,62,"CENTRAL","CONGRUENT",425,1
10,1,1,1,67,"Female",12,43,"DOUBLE","INCONGRUENT",630,1
10,1,1,1,67,"Female",12,26,"NOCUE","INCONGRUENT",680,1
10,1,1,1,67,"Female",12,55,"DOUBLE","CONGRUENT",559,1
10,1,1,1,67,"Female",12,22,"SPATIAL","CONGRUENT",513,1
10,1,1,1,67,"Female",12,31,"SPATIAL","INCONGRUENT",648,1
10,1,1,1,67,"Female",12,11,"DOUBLE","CONGRUENT",589,1
10,1,1,1,67,"Female",12,37,"DOUBLE","INCONGRUENT",715,1
10,1,1,1,67,"Female",12,25,"DOUBLE","CONGRUENT",527,1
10,1,1,1,67,"Female",12,23,"DOUBLE","INCONGRUENT",637,1
10,1,1,1,67,"Female",12,7,"NOCUE","CONGRUENT",475,1
10,1,1,1,67,"Female",12,67,"SPATIAL","CONGRUENT",549,1
10,1,1,1,67,"Female",12,46,"NOCUE","CONGRUENT",623,1
10,1,1,1,67,"Female",12,66,"CENTRAL","INCONGRUENT",675,1
10,1,1,1,67,"Female",12,88,"CENTRAL","CONGRUENT",456,1
10,1,1,1,67,"Female",12,32,"CENTRAL","CONGRUENT",628,1
10,1,1,1,67,"Female",12,28,"NOCUE","INCONGRUENT",474,1
10,1,1,1,67,"Female",12,85,"CENTRAL","CONGRUENT",518,1
10,1,1,1,67,"Female",12,54,"NOCUE","INCONGRUENT",646,1
10,1,1,1,67,"Female",12,45,"DOUBLE","INCONGRUENT",672,1
10,1,1,1,67,"Female",12,21,"SPATIAL","INCONGRUENT",635,1
10,1,1,1,67,"Female",12,86,"SPATIAL","CONGRUENT",523,1
10,1,1,1,67,"Female",12,51,"SPATIAL","INCONGRUENT",709,1
10,1,1,1,67,"Female",12,33,"NOCUE","CONGRUENT",634,1
10,1,1,1,67,"Female",12,6,"SPATIAL","INCONGRUENT",692,1
10,1,1,1,67,"Female",12,94,"DOUBLE","CONGRUENT",616,1
10,1,1,1,67,"Female",12,93,"SPATIAL","CONGRUENT",567,1
10,1,1,1,67,"Female",12,87,"NOCUE","CONGRUENT",541,1
10,1,1,1,67,"Female",12,44,"SPATIAL","CONGRUENT",601,1
10,1,1,1,67,"Female",12,81,"CENTRAL","CONGRUENT",559,1
10,1,1,1,67,"Female",12,84,"CENTRAL","INCONGRUENT",660,1
10,1,1,1,67,"Female",12,12,"DOUBLE","INCONGRUENT",705,1
10,1,1,1,67,"Female",12,3,"SPATIAL","CONGRUENT",620,1
10,1,1,1,67,"Female",12,20,"CENTRAL","INCONGRUENT",665,1
10,1,1,1,67,"Female",12,19,"CENTRAL","CONGRUENT",555,1
10,1,1,1,67,"Female",12,5,"NOCUE","INCONGRUENT",771,1
11,1,0,0,72,"Male",6,8,"SPATIAL","CONGRUENT",589,NA
11,1,0,0,72,"Male",6,75,"DOUBLE","CONGRUENT",914,NA
11,0,0,0,72,"Male",6,9,"SPATIAL","INCONGRUENT",NA,NA
11,1,0,0,72,"Male",6,33,"DOUBLE","INCONGRUENT",577,NA
11,0,0,0,72,"Male",6,94,"NOCUE","INCONGRUENT",NA,NA
11,0,0,0,72,"Male",6,67,"SPATIAL","INCONGRUENT",NA,NA
11,1,0,0,72,"Male",6,44,"SPATIAL","CONGRUENT",819,NA
11,1,0,0,72,"Male",6,68,"CENTRAL","CONGRUENT",604,NA
11,1,0,0,72,"Male",6,54,"CENTRAL","CONGRUENT",729,NA
11,1,0,0,72,"Male",6,79,"DOUBLE","CONGRUENT",667,NA
11,0,0,0,72,"Male",6,56,"DOUBLE","INCONGRUENT",NA,NA
11,1,0,0,72,"Male",6,5,"CENTRAL","CONGRUENT",764,NA
11,0,0,0,72,"Male",6,47,"DOUBLE","INCONGRUENT",NA,NA
11,0,0,0,72,"Male",6,69,"DOUBLE","INCONGRUENT",NA,NA
11,0,0,0,72,"Male",6,43,"SPATIAL","INCONGRUENT",NA,NA
11,1,0,0,72,"Male",6,6,"CENTRAL","CONGRUENT",705,NA
11,0,0,0,72,"Male",6,12,"CENTRAL","INCONGRUENT",NA,NA
11,0,0,0,72,"Male",6,71,"NOCUE","INCONGRUENT",NA,NA
11,0,0,0,72,"Male",6,84,"CENTRAL","INCONGRUENT",NA,NA
11,1,0,0,72,"Male",6,13,"DOUBLE","CONGRUENT",535,NA
11,0,0,0,72,"Male",6,76,"NOCUE","INCONGRUENT",NA,NA
11,0,0,0,72,"Male",6,46,"NOCUE","INCONGRUENT",NA,NA
11,0,0,0,72,"Male",6,11,"CENTRAL","INCONGRUENT",NA,NA
11,1,0,0,72,"Male",6,32,"SPATIAL","CONGRUENT",698,NA
11,1,0,0,72,"Male",6,4,"NOCUE","CONGRUENT",831,NA
11,0,0,0,72,"Male",6,31,"CENTRAL","INCONGRUENT",NA,NA
11,1,0,0,72,"Male",6,83,"DOUBLE","CONGRUENT",558,NA
11,1,0,0,72,"Male",6,93,"DOUBLE","CONGRUENT",729,NA
11,0,0,0,72,"Male",6,77,"DOUBLE","INCONGRUENT",NA,NA
11,1,0,0,72,"Male",6,45,"NOCUE","CONGRUENT",606,NA
11,1,0,0,72,"Male",6,55,"CENTRAL","INCONGRUENT",837,NA
11,1,0,0,72,"Male",6,90,"SPATIAL","CONGRUENT",739,NA
11,1,0,0,72,"Male",6,3,"CENTRAL","CONGRUENT",804,NA
11,1,0,0,72,"Male",6,53,"SPATIAL","CONGRUENT",985,NA
11,1,0,0,72,"Male",6,7,"CENTRAL","CONGRUENT",663,NA
11,0,0,0,72,"Male",6,66,"CENTRAL","INCONGRUENT",NA,NA
11,1,0,0,72,"Male",6,57,"NOCUE","CONGRUENT",1047,NA
11,1,0,0,72,"Male",6,80,"DOUBLE","CONGRUENT",867,NA
11,1,0,0,72,"Male",6,30,"SPATIAL","CONGRUENT",564,NA
11,1,0,0,72,"Male",6,49,"NOCUE","CONGRUENT",1175,NA
11,0,0,0,72,"Male",6,73,"CENTRAL","INCONGRUENT",NA,NA
11,1,0,0,72,"Male",6,81,"CENTRAL","CONGRUENT",771,NA
11,0,0,0,72,"Male",6,50,"NOCUE","INCONGRUENT",NA,NA
11,1,0,0,72,"Male",6,78,"DOUBLE","CONGRUENT",1136,NA
11,0,0,0,72,"Male",6,51,"DOUBLE","INCONGRUENT",NA,NA
11,0,0,0,72,"Male",6,52,"SPATIAL","INCONGRUENT",NA,NA
11,0,0,0,72,"Male",6,92,"NOCUE","INCONGRUENT",NA,NA
11,0,0,0,72,"Male",6,95,"CENTRAL","INCONGRUENT",NA,NA
11,1,0,0,72,"Male",6,62,"DOUBLE","CONGRUENT",862,NA
11,1,0,0,72,"Male",6,85,"CENTRAL","CONGRUENT",597,NA
11,0,0,0,72,"Male",6,61,"SPATIAL","INCONGRUENT",NA,NA
11,1,0,0,72,"Male",6,63,"DOUBLE","CONGRUENT",893,NA
11,0,0,0,72,"Male",6,70,"DOUBLE","INCONGRUENT",NA,NA
11,0,0,0,72,"Male",6,89,"DOUBLE","INCONGRUENT",NA,NA
11,0,0,0,72,"Male",6,27,"SPATIAL","INCONGRUENT",NA,NA
11,0,0,0,72,"Male",6,2,"SPATIAL","CONGRUENT",NA,NA
11,0,0,0,72,"Male",6,48,"SPATIAL","INCONGRUENT",NA,NA
11,0,0,0,72,"Male",6,64,"DOUBLE","INCONGRUENT",NA,NA
11,1,0,0,72,"Male",6,65,"SPATIAL","CONGRUENT",591,NA
11,0,0,0,72,"Male",6,23,"NOCUE","INCONGRUENT",NA,NA
11,1,0,0,72,"Male",6,10,"NOCUE","CONGRUENT",775,NA
11,1,0,0,72,"Male",6,59,"NOCUE","CONGRUENT",628,NA
11,0,0,0,72,"Male",6,72,"DOUBLE","INCONGRUENT",NA,NA
11,1,0,0,72,"Male",6,91,"CENTRAL","CONGRUENT",867,NA
11,0,0,0,72,"Male",6,82,"NOCUE","INCONGRUENT",NA,NA
11,1,0,0,72,"Male",6,39,"SPATIAL","CONGRUENT",690,NA
11,0,0,0,72,"Male",6,1,"SPATIAL","INCONGRUENT",NA,NA
11,0,0,0,72,"Male",6,14,"CENTRAL","INCONGRUENT",NA,NA
11,1,0,0,72,"Male",6,87,"NOCUE","CONGRUENT",836,NA
11,1,0,0,72,"Male",6,60,"NOCUE","CONGRUENT",494,NA
11,1,0,0,72,"Male",6,24,"NOCUE","CONGRUENT",671,NA
11,1,0,0,72,"Male",6,88,"DOUBLE","CONGRUENT",763,NA
11,1,0,0,72,"Male",6,96,"NOCUE","CONGRUENT",540,NA
11,1,0,0,72,"Male",6,26,"NOCUE","CONGRUENT",582,NA
11,1,0,0,72,"Male",6,25,"DOUBLE","INCONGRUENT",501,NA
11,0,0,0,72,"Male",6,29,"NOCUE","INCONGRUENT",NA,NA
11,1,0,0,72,"Male",6,36,"DOUBLE","CONGRUENT",695,NA
11,0,0,0,72,"Male",6,34,"NOCUE","INCONGRUENT",NA,NA
11,1,0,0,72,"Male",6,42,"DOUBLE","CONGRUENT",607,NA
11,0,0,0,72,"Male",6,40,"CENTRAL","INCONGRUENT",NA,NA
11,1,0,0,72,"Male",6,22,"SPATIAL","CONGRUENT",636,NA
11,1,0,0,72,"Male",6,28,"CENTRAL","CONGRUENT",606,NA
11,0,0,0,72,"Male",6,74,"CENTRAL","INCONGRUENT",NA,NA
11,1,0,0,72,"Male",6,58,"NOCUE","CONGRUENT",662,NA
11,0,0,0,72,"Male",6,37,"SPATIAL","INCONGRUENT",NA,NA
11,0,0,0,72,"Male",6,20,"SPATIAL","INCONGRUENT",NA,NA
11,0,0,0,72,"Male",6,35,"SPATIAL","INCONGRUENT",NA,NA
11,1,0,0,72,"Male",6,18,"SPATIAL","CONGRUENT",623,NA
11,1,0,0,72,"Male",6,17,"SPATIAL","CONGRUENT",674,NA
11,0,0,0,72,"Male",6,19,"SPATIAL","INCONGRUENT",NA,NA
11,0,0,0,72,"Male",6,21,"NOCUE","INCONGRUENT",NA,NA
11,0,0,0,72,"Male",6,15,"DOUBLE","INCONGRUENT",NA,NA
11,0,0,0,72,"Male",6,16,"CENTRAL","INCONGRUENT",NA,NA
11,1,0,0,72,"Male",6,38,"CENTRAL","CONGRUENT",884,NA
11,1,0,0,72,"Male",6,41,"CENTRAL","CONGRUENT",682,NA
12,1,1,1,68,"Male",7,11,"NOCUE","CONGRUENT",691,0.8
12,1,1,1,68,"Male",7,56,"DOUBLE","INCONGRUENT",656,0.8
12,1,1,1,68,"Male",7,29,"DOUBLE","INCONGRUENT",700,0.8
12,1,1,1,68,"Male",7,23,"CENTRAL","CONGRUENT",635,0.8
12,1,1,1,68,"Male",7,32,"SPATIAL","CONGRUENT",403,0.8
12,1,1,1,68,"Male",7,28,"NOCUE","INCONGRUENT",388,0.8
12,1,1,1,68,"Male",7,2,"SPATIAL","CONGRUENT",603,0.8
12,1,1,1,68,"Male",7,20,"NOCUE","CONGRUENT",657,0.8
12,1,1,1,68,"Male",7,6,"NOCUE","INCONGRUENT",611,0.8
12,1,1,1,68,"Male",7,38,"CENTRAL","CONGRUENT",410,0.8
12,1,1,1,68,"Male",7,59,"DOUBLE","INCONGRUENT",666,0.8
12,1,1,1,68,"Male",7,53,"NOCUE","INCONGRUENT",765,0.8
12,0,1,1,68,"Male",7,10,"SPATIAL","INCONGRUENT",NA,0.8
12,1,1,1,68,"Male",7,40,"DOUBLE","INCONGRUENT",758,0.8
12,1,1,1,68,"Male",7,45,"NOCUE","INCONGRUENT",446,0.8
12,1,1,1,68,"Male",7,42,"DOUBLE","CONGRUENT",411,0.8
12,1,1,1,68,"Male",7,54,"DOUBLE","INCONGRUENT",521,0.8
12,1,1,1,68,"Male",7,36,"NOCUE","CONGRUENT",438,0.8
12,1,1,1,68,"Male",7,12,"DOUBLE","INCONGRUENT",705,0.8
12,1,1,1,68,"Male",7,43,"CENTRAL","CONGRUENT",575,0.8
12,1,1,1,68,"Male",7,16,"NOCUE","CONGRUENT",504,0.8
12,1,1,1,68,"Male",7,75,"SPATIAL","CONGRUENT",456,0.8
12,1,1,1,68,"Male",7,92,"CENTRAL","CONGRUENT",454,0.8
12,1,1,1,68,"Male",7,86,"CENTRAL","CONGRUENT",644,0.8
12,1,1,1,68,"Male",7,14,"NOCUE","INCONGRUENT",885,0.8
12,1,1,1,68,"Male",7,64,"CENTRAL","INCONGRUENT",560,0.8
12,1,1,1,68,"Male",7,24,"CENTRAL","INCONGRUENT",439,0.8
12,1,1,1,68,"Male",7,77,"DOUBLE","CONGRUENT",471,0.8
12,1,1,1,68,"Male",7,96,"NOCUE","INCONGRUENT",506,0.8
12,1,1,1,68,"Male",7,52,"CENTRAL","INCONGRUENT",583,0.8
12,1,1,1,68,"Male",7,3,"NOCUE","INCONGRUENT",592,0.8
12,1,1,1,68,"Male",7,49,"DOUBLE","INCONGRUENT",517,0.8
12,1,1,1,68,"Male",7,44,"NOCUE","INCONGRUENT",568,0.8
12,1,1,1,68,"Male",7,39,"SPATIAL","INCONGRUENT",408,0.8
12,1,1,1,68,"Male",7,60,"CENTRAL","CONGRUENT",577,0.8
12,1,1,1,68,"Male",7,63,"DOUBLE","CONGRUENT",393,0.8
12,1,1,1,68,"Male",7,46,"CENTRAL","INCONGRUENT",523,0.8
12,1,1,1,68,"Male",7,78,"SPATIAL","INCONGRUENT",666,0.8
12,1,1,1,68,"Male",7,55,"DOUBLE","INCONGRUENT",527,0.8
12,1,1,1,68,"Male",7,71,"CENTRAL","CONGRUENT",588,0.8
12,1,1,1,68,"Male",7,68,"NOCUE","INCONGRUENT",561,0.8
12,1,1,1,68,"Male",7,27,"DOUBLE","INCONGRUENT",482,0.8
12,1,1,1,68,"Male",7,37,"NOCUE","CONGRUENT",526,0.8
12,1,1,1,68,"Male",7,57,"SPATIAL","INCONGRUENT",567,0.8
12,1,1,1,68,"Male",7,69,"NOCUE","CONGRUENT",424,0.8
12,1,1,1,68,"Male",7,47,"CENTRAL","CONGRUENT",414,0.8
12,1,1,1,68,"Male",7,34,"DOUBLE","INCONGRUENT",670,0.8
12,1,1,1,68,"Male",7,13,"NOCUE","CONGRUENT",475,0.8
12,1,1,1,68,"Male",7,41,"CENTRAL","INCONGRUENT",691,0.8
12,1,1,1,68,"Male",7,50,"SPATIAL","CONGRUENT",568,0.8
12,1,1,1,68,"Male",7,72,"DOUBLE","CONGRUENT",389,0.8
12,1,1,1,68,"Male",7,74,"CENTRAL","CONGRUENT",484,0.8
12,1,1,1,68,"Male",7,85,"CENTRAL","CONGRUENT",452,0.8
12,1,1,1,68,"Male",7,61,"NOCUE","INCONGRUENT",626,0.8
12,1,1,1,68,"Male",7,58,"CENTRAL","INCONGRUENT",488,0.8
12,1,1,1,68,"Male",7,76,"DOUBLE","CONGRUENT",544,0.8
12,1,1,1,68,"Male",7,95,"DOUBLE","CONGRUENT",520,0.8
12,1,1,1,68,"Male",7,19,"DOUBLE","CONGRUENT",480,0.8
12,1,1,1,68,"Male",7,22,"DOUBLE","CONGRUENT",562,0.8
12,1,1,1,68,"Male",7,80,"DOUBLE","CONGRUENT",574,0.8
12,1,1,1,68,"Male",7,21,"NOCUE","CONGRUENT",410,0.8
12,1,1,1,68,"Male",7,67,"SPATIAL","INCONGRUENT",668,0.8
12,1,1,1,68,"Male",7,26,"SPATIAL","INCONGRUENT",575,0.8
12,1,1,1,68,"Male",7,25,"CENTRAL","INCONGRUENT",599,0.8
12,1,1,1,68,"Male",7,81,"SPATIAL","INCONGRUENT",589,0.8
12,1,1,1,68,"Male",7,33,"NOCUE","CONGRUENT",450,0.8
12,1,1,1,68,"Male",7,9,"SPATIAL","CONGRUENT",493,0.8
12,1,1,1,68,"Male",7,70,"SPATIAL","CONGRUENT",476,0.8
12,1,1,1,68,"Male",7,7,"CENTRAL","CONGRUENT",633,0.8
12,1,1,1,68,"Male",7,8,"SPATIAL","CONGRUENT",408,0.8
12,1,1,1,68,"Male",7,83,"NOCUE","CONGRUENT",470,0.8
12,1,1,1,68,"Male",7,18,"SPATIAL","CONGRUENT",552,0.8
12,1,1,1,68,"Male",7,66,"CENTRAL","CONGRUENT",490,0.8
12,1,1,1,68,"Male",7,93,"CENTRAL","INCONGRUENT",688,0.8
12,1,1,1,68,"Male",7,17,"NOCUE","INCONGRUENT",661,0.8
12,1,1,1,68,"Male",7,5,"SPATIAL","CONGRUENT",618,0.8
12,1,1,1,68,"Male",7,79,"SPATIAL","CONGRUENT",507,0.8
12,1,1,1,68,"Male",7,48,"CENTRAL","INCONGRUENT",484,0.8
12,1,1,1,68,"Male",7,51,"SPATIAL","CONGRUENT",556,0.8
12,1,1,1,68,"Male",7,31,"CENTRAL","INCONGRUENT",415,0.8
12,1,1,1,68,"Male",7,4,"DOUBLE","INCONGRUENT",740,0.8
12,1,1,1,68,"Male",7,94,"DOUBLE","INCONGRUENT",629,0.8
12,1,1,1,68,"Male",7,88,"SPATIAL","INCONGRUENT",613,0.8
12,1,1,1,68,"Male",7,1,"NOCUE","CONGRUENT",430,0.8
12,1,1,1,68,"Male",7,65,"SPATIAL","CONGRUENT",628,0.8
12,1,1,1,68,"Male",7,73,"SPATIAL","INCONGRUENT",377,0.8
12,1,1,1,68,"Male",7,84,"SPATIAL","INCONGRUENT",608,0.8
12,1,1,1,68,"Male",7,87,"CENTRAL","INCONGRUENT",416,0.8
12,1,1,1,68,"Male",7,89,"NOCUE","CONGRUENT",458,0.8
12,1,1,1,68,"Male",7,82,"NOCUE","INCONGRUENT",709,0.8
12,1,1,1,68,"Male",7,30,"DOUBLE","CONGRUENT",631,0.8
12,1,1,1,68,"Male",7,91,"CENTRAL","INCONGRUENT",437,0.8
12,1,1,1,68,"Male",7,35,"SPATIAL","INCONGRUENT",652,0.8
12,1,1,1,68,"Male",7,15,"DOUBLE","CONGRUENT",631,0.8
12,1,1,1,68,"Male",7,90,"DOUBLE","CONGRUENT",516,0.8
12,1,1,1,68,"Male",7,62,"SPATIAL","INCONGRUENT",547,0.8
13,1,1,1,74,"Male",6,80,"SPATIAL","INCONGRUENT",892,NA
13,1,1,1,74,"Male",6,6,"CENTRAL","INCONGRUENT",664,NA
13,1,1,1,74,"Male",6,37,"DOUBLE","CONGRUENT",573,NA
13,1,1,1,74,"Male",6,18,"NOCUE","CONGRUENT",635,NA
13,1,1,1,74,"Male",6,45,"NOCUE","INCONGRUENT",535,NA
13,1,1,1,74,"Male",6,29,"DOUBLE","CONGRUENT",717,NA
13,1,1,1,74,"Male",6,34,"DOUBLE","INCONGRUENT",605,NA
13,1,1,1,74,"Male",6,74,"DOUBLE","INCONGRUENT",615,NA
13,1,1,1,74,"Male",6,76,"CENTRAL","CONGRUENT",484,NA
13,1,1,1,74,"Male",6,17,"NOCUE","CONGRUENT",616,NA
13,1,1,1,74,"Male",6,78,"CENTRAL","CONGRUENT",531,NA
13,1,1,1,74,"Male",6,77,"CENTRAL","INCONGRUENT",583,NA
13,1,1,1,74,"Male",6,42,"CENTRAL","CONGRUENT",477,NA
13,1,1,1,74,"Male",6,64,"SPATIAL","CONGRUENT",555,NA
13,1,1,1,74,"Male",6,16,"DOUBLE","INCONGRUENT",637,NA
13,1,1,1,74,"Male",6,35,"DOUBLE","INCONGRUENT",904,NA
13,1,1,1,74,"Male",6,55,"NOCUE","INCONGRUENT",608,NA
13,1,1,1,74,"Male",6,3,"SPATIAL","CONGRUENT",423,NA
13,1,1,1,74,"Male",6,69,"DOUBLE","INCONGRUENT",814,NA
13,1,1,1,74,"Male",6,43,"NOCUE","CONGRUENT",499,NA
13,1,1,1,74,"Male",6,20,"SPATIAL","CONGRUENT",537,NA
13,1,1,1,74,"Male",6,33,"SPATIAL","INCONGRUENT",549,NA
13,1,1,1,74,"Male",6,1,"DOUBLE","INCONGRUENT",980,NA
13,1,1,1,74,"Male",6,28,"NOCUE","INCONGRUENT",526,NA
13,1,1,1,74,"Male",6,90,"CENTRAL","INCONGRUENT",610,NA
13,1,1,1,74,"Male",6,60,"CENTRAL","INCONGRUENT",640,NA
13,1,1,1,74,"Male",6,59,"CENTRAL","INCONGRUENT",1121,NA
13,1,1,1,74,"Male",6,38,"SPATIAL","CONGRUENT",594,NA
13,1,1,1,74,"Male",6,71,"CENTRAL","INCONGRUENT",620,NA
13,0,1,1,74,"Male",6,87,"DOUBLE","INCONGRUENT",NA,NA
13,1,1,1,74,"Male",6,72,"NOCUE","CONGRUENT",467,NA
13,1,1,1,74,"Male",6,65,"SPATIAL","INCONGRUENT",530,NA
13,1,1,1,74,"Male",6,49,"SPATIAL","INCONGRUENT",682,NA
13,1,1,1,74,"Male",6,48,"NOCUE","CONGRUENT",513,NA
13,1,1,1,74,"Male",6,61,"SPATIAL","INCONGRUENT",852,NA
13,1,1,1,74,"Male",6,54,"CENTRAL","CONGRUENT",660,NA
13,1,1,1,74,"Male",6,53,"CENTRAL","CONGRUENT",586,NA
13,1,1,1,74,"Male",6,89,"DOUBLE","CONGRUENT",503,NA
13,1,1,1,74,"Male",6,9,"CENTRAL","INCONGRUENT",705,NA
13,1,1,1,74,"Male",6,62,"NOCUE","INCONGRUENT",678,NA
13,1,1,1,74,"Male",6,66,"DOUBLE","CONGRUENT",528,NA
13,1,1,1,74,"Male",6,39,"NOCUE","CONGRUENT",579,NA
13,1,1,1,74,"Male",6,25,"NOCUE","CONGRUENT",1232,NA
13,1,1,1,74,"Male",6,15,"SPATIAL","CONGRUENT",716,NA
13,1,1,1,74,"Male",6,8,"SPATIAL","CONGRUENT",587,NA
13,1,1,1,74,"Male",6,13,"CENTRAL","INCONGRUENT",660,NA
13,1,1,1,74,"Male",6,46,"NOCUE","CONGRUENT",902,NA
13,1,1,1,74,"Male",6,5,"CENTRAL","CONGRUENT",542,NA
13,1,1,1,74,"Male",6,85,"SPATIAL","INCONGRUENT",494,NA
13,1,1,1,74,"Male",6,40,"SPATIAL","INCONGRUENT",458,NA
13,1,1,1,74,"Male",6,83,"SPATIAL","CONGRUENT",586,NA
13,1,1,1,74,"Male",6,12,"NOCUE","INCONGRUENT",554,NA
13,1,1,1,74,"Male",6,73,"NOCUE","INCONGRUENT",668,NA
13,1,1,1,74,"Male",6,67,"NOCUE","INCONGRUENT",762,NA
13,1,1,1,74,"Male",6,26,"NOCUE","CONGRUENT",707,NA
13,1,1,1,74,"Male",6,27,"DOUBLE","CONGRUENT",779,NA
13,1,1,1,74,"Male",6,82,"CENTRAL","CONGRUENT",563,NA
13,1,1,1,74,"Male",6,31,"CENTRAL","CONGRUENT",757,NA
13,1,1,1,74,"Male",6,2,"DOUBLE","CONGRUENT",551,NA
13,1,1,1,74,"Male",6,58,"DOUBLE","INCONGRUENT",686,NA
13,1,1,1,74,"Male",6,96,"CENTRAL","INCONGRUENT",655,NA
13,1,1,1,74,"Male",6,23,"SPATIAL","CONGRUENT",542,NA
13,1,1,1,74,"Male",6,88,"SPATIAL","INCONGRUENT",485,NA
13,1,1,1,74,"Male",6,10,"SPATIAL","CONGRUENT",564,NA
13,1,1,1,74,"Male",6,94,"CENTRAL","CONGRUENT",565,NA
13,1,1,1,74,"Male",6,86,"DOUBLE","CONGRUENT",489,NA
13,1,1,1,74,"Male",6,93,"NOCUE","INCONGRUENT",589,NA
13,1,1,1,74,"Male",6,36,"DOUBLE","CONGRUENT",551,NA
13,1,1,1,74,"Male",6,75,"SPATIAL","CONGRUENT",543,NA
13,1,1,1,74,"Male",6,52,"SPATIAL","CONGRUENT",585,NA
13,1,1,1,74,"Male",6,7,"NOCUE","CONGRUENT",989,NA
13,1,1,1,74,"Male",6,57,"DOUBLE","CONGRUENT",546,NA
13,1,1,1,74,"Male",6,47,"DOUBLE","CONGRUENT",669,NA
13,1,1,1,74,"Male",6,56,"NOCUE","CONGRUENT",753,NA
13,1,1,1,74,"Male",6,92,"SPATIAL","INCONGRUENT",608,NA
13,1,1,1,74,"Male",6,44,"SPATIAL","CONGRUENT",469,NA
13,1,1,1,74,"Male",6,63,"CENTRAL","INCONGRUENT",585,NA
13,1,1,1,74,"Male",6,4,"DOUBLE","CONGRUENT",809,NA
13,1,1,1,74,"Male",6,14,"NOCUE","INCONGRUENT",571,NA
13,1,1,1,74,"Male",6,91,"CENTRAL","INCONGRUENT",977,NA
13,1,1,1,74,"Male",6,70,"CENTRAL","INCONGRUENT",603,NA
13,1,1,1,74,"Male",6,30,"DOUBLE","INCONGRUENT",735,NA
13,1,1,1,74,"Male",6,81,"DOUBLE","INCONGRUENT",675,NA
13,1,1,1,74,"Male",6,79,"CENTRAL","CONGRUENT",580,NA
13,1,1,1,74,"Male",6,22,"SPATIAL","INCONGRUENT",498,NA
13,1,1,1,74,"Male",6,95,"CENTRAL","CONGRUENT",505,NA
13,1,1,1,74,"Male",6,41,"DOUBLE","INCONGRUENT",765,NA
13,1,1,1,74,"Male",6,50,"DOUBLE","INCONGRUENT",926,NA
13,1,1,1,74,"Male",6,32,"NOCUE","INCONGRUENT",533,NA
13,1,1,1,74,"Male",6,11,"CENTRAL","CONGRUENT",780,NA
13,1,1,1,74,"Male",6,21,"SPATIAL","INCONGRUENT",812,NA
13,1,1,1,74,"Male",6,84,"NOCUE","CONGRUENT",521,NA
13,1,1,1,74,"Male",6,24,"NOCUE","INCONGRUENT",524,NA
13,1,1,1,74,"Male",6,51,"SPATIAL","INCONGRUENT",615,NA
13,1,1,1,74,"Male",6,68,"NOCUE","INCONGRUENT",1394,NA
13,1,1,1,74,"Male",6,19,"DOUBLE","CONGRUENT",799,NA
14,1,1,1,70,"Male",16,5,"DOUBLE","INCONGRUENT",790,0.5
14,1,1,1,70,"Male",16,34,"CENTRAL","INCONGRUENT",721,0.5
14,1,1,1,70,"Male",16,96,"NOCUE","CONGRUENT",588,0.5
14,0,1,1,70,"Male",16,7,"NOCUE","INCONGRUENT",NA,0.5
14,1,1,1,70,"Male",16,55,"CENTRAL","INCONGRUENT",470,0.5
14,1,1,1,70,"Male",16,86,"SPATIAL","CONGRUENT",692,0.5
14,1,1,1,70,"Male",16,8,"DOUBLE","INCONGRUENT",563,0.5
14,1,1,1,70,"Male",16,77,"NOCUE","INCONGRUENT",428,0.5
14,1,1,1,70,"Male",16,89,"NOCUE","CONGRUENT",584,0.5
14,1,1,1,70,"Male",16,32,"DOUBLE","CONGRUENT",572,0.5
14,1,1,1,70,"Male",16,6,"NOCUE","CONGRUENT",600,0.5
14,0,1,1,70,"Male",16,64,"SPATIAL","CONGRUENT",NA,0.5
14,1,1,1,70,"Male",16,35,"DOUBLE","INCONGRUENT",561,0.5
14,0,1,1,70,"Male",16,88,"NOCUE","CONGRUENT",NA,0.5
14,1,1,1,70,"Male",16,28,"SPATIAL","INCONGRUENT",647,0.5
14,1,1,1,70,"Male",16,79,"DOUBLE","INCONGRUENT",730,0.5
14,1,1,1,70,"Male",16,14,"DOUBLE","CONGRUENT",564,0.5
14,1,1,1,70,"Male",16,20,"SPATIAL","INCONGRUENT",839,0.5
14,1,1,1,70,"Male",16,19,"NOCUE","CONGRUENT",925,0.5
14,1,1,1,70,"Male",16,92,"DOUBLE","INCONGRUENT",537,0.5
14,1,1,1,70,"Male",16,83,"SPATIAL","CONGRUENT",689,0.5
14,1,1,1,70,"Male",16,36,"CENTRAL","CONGRUENT",729,0.5
14,1,1,1,70,"Male",16,1,"NOCUE","INCONGRUENT",893,0.5
14,1,1,1,70,"Male",16,21,"SPATIAL","CONGRUENT",594,0.5
14,1,1,1,70,"Male",16,87,"NOCUE","CONGRUENT",522,0.5
14,1,1,1,70,"Male",16,10,"SPATIAL","INCONGRUENT",481,0.5
14,1,1,1,70,"Male",16,41,"NOCUE","CONGRUENT",642,0.5
14,1,1,1,70,"Male",16,4,"DOUBLE","INCONGRUENT",706,0.5
14,1,1,1,70,"Male",16,38,"NOCUE","INCONGRUENT",922,0.5
14,1,1,1,70,"Male",16,73,"NOCUE","INCONGRUENT",558,0.5
14,1,1,1,70,"Male",16,33,"DOUBLE","CONGRUENT",716,0.5
14,1,1,1,70,"Male",16,22,"NOCUE","CONGRUENT",898,0.5
14,1,1,1,70,"Male",16,90,"NOCUE","INCONGRUENT",699,0.5
14,1,1,1,70,"Male",16,15,"SPATIAL","CONGRUENT",862,0.5
14,1,1,1,70,"Male",16,47,"SPATIAL","CONGRUENT",623,0.5
14,1,1,1,70,"Male",16,27,"CENTRAL","CONGRUENT",872,0.5
14,1,1,1,70,"Male",16,29,"CENTRAL","INCONGRUENT",1216,0.5
14,1,1,1,70,"Male",16,23,"NOCUE","INCONGRUENT",603,0.5
14,1,1,1,70,"Male",16,37,"NOCUE","INCONGRUENT",549,0.5
14,1,1,1,70,"Male",16,9,"CENTRAL","CONGRUENT",1036,0.5
14,1,1,1,70,"Male",16,84,"SPATIAL","INCONGRUENT",524,0.5
14,1,1,1,70,"Male",16,46,"NOCUE","INCONGRUENT",629,0.5
14,1,1,1,70,"Male",16,52,"NOCUE","CONGRUENT",383,0.5
14,1,1,1,70,"Male",16,63,"CENTRAL","INCONGRUENT",926,0.5
14,1,1,1,70,"Male",16,50,"CENTRAL","INCONGRUENT",561,0.5
14,1,1,1,70,"Male",16,42,"DOUBLE","CONGRUENT",839,0.5
14,1,1,1,70,"Male",16,53,"CENTRAL","CONGRUENT",640,0.5
14,1,1,1,70,"Male",16,62,"DOUBLE","INCONGRUENT",608,0.5
14,1,1,1,70,"Male",16,58,"SPATIAL","CONGRUENT",458,0.5
14,1,1,1,70,"Male",16,85,"DOUBLE","INCONGRUENT",504,0.5
14,1,1,1,70,"Male",16,2,"DOUBLE","INCONGRUENT",706,0.5
14,1,1,1,70,"Male",16,44,"DOUBLE","INCONGRUENT",907,0.5
14,1,1,1,70,"Male",16,43,"SPATIAL","CONGRUENT",766,0.5
14,1,1,1,70,"Male",16,51,"SPATIAL","CONGRUENT",1030,0.5
14,1,1,1,70,"Male",16,56,"CENTRAL","INCONGRUENT",614,0.5
14,1,1,1,70,"Male",16,18,"NOCUE","CONGRUENT",506,0.5
14,1,1,1,70,"Male",16,12,"CENTRAL","INCONGRUENT",712,0.5
14,1,1,1,70,"Male",16,26,"SPATIAL","INCONGRUENT",523,0.5
14,1,1,1,70,"Male",16,3,"CENTRAL","CONGRUENT",742,0.5
14,1,1,1,70,"Male",16,40,"SPATIAL","INCONGRUENT",718,0.5
14,1,1,1,70,"Male",16,17,"CENTRAL","CONGRUENT",798,0.5
14,1,1,1,70,"Male",16,72,"DOUBLE","CONGRUENT",629,0.5
14,1,1,1,70,"Male",16,48,"CENTRAL","CONGRUENT",818,0.5
14,1,1,1,70,"Male",16,81,"CENTRAL","INCONGRUENT",662,0.5
14,1,1,1,70,"Male",16,24,"CENTRAL","INCONGRUENT",739,0.5
14,1,1,1,70,"Male",16,70,"CENTRAL","CONGRUENT",625,0.5
14,1,1,1,70,"Male",16,54,"DOUBLE","INCONGRUENT",568,0.5
14,1,1,1,70,"Male",16,75,"CENTRAL","CONGRUENT",584,0.5
14,1,1,1,70,"Male",16,66,"DOUBLE","CONGRUENT",870,0.5
14,1,1,1,70,"Male",16,78,"DOUBLE","CONGRUENT",491,0.5
14,1,1,1,70,"Male",16,91,"NOCUE","INCONGRUENT",553,0.5
14,1,1,1,70,"Male",16,61,"DOUBLE","CONGRUENT",576,0.5
14,1,1,1,70,"Male",16,16,"SPATIAL","INCONGRUENT",708,0.5
14,1,1,1,70,"Male",16,69,"SPATIAL","INCONGRUENT",485,0.5
14,1,1,1,70,"Male",16,74,"NOCUE","CONGRUENT",660,0.5
14,1,1,1,70,"Male",16,25,"SPATIAL","INCONGRUENT",677,0.5
14,1,1,1,70,"Male",16,80,"SPATIAL","CONGRUENT",452,0.5
14,1,1,1,70,"Male",16,76,"CENTRAL","INCONGRUENT",544,0.5
14,1,1,1,70,"Male",16,82,"CENTRAL","CONGRUENT",488,0.5
14,1,1,1,70,"Male",16,67,"SPATIAL","INCONGRUENT",573,0.5
14,1,1,1,70,"Male",16,94,"SPATIAL","CONGRUENT",600,0.5
14,1,1,1,70,"Male",16,11,"SPATIAL","INCONGRUENT",672,0.5
14,1,1,1,70,"Male",16,65,"NOCUE","CONGRUENT",484,0.5
14,1,1,1,70,"Male",16,31,"DOUBLE","CONGRUENT",712,0.5
14,1,1,1,70,"Male",16,57,"SPATIAL","INCONGRUENT",578,0.5
14,1,1,1,70,"Male",16,13,"DOUBLE","CONGRUENT",1111,0.5
14,1,1,1,70,"Male",16,93,"CENTRAL","CONGRUENT",427,0.5
14,1,1,1,70,"Male",16,95,"CENTRAL","INCONGRUENT",495,0.5
14,1,1,1,70,"Male",16,68,"DOUBLE","CONGRUENT",871,0.5
14,1,1,1,70,"Male",16,39,"NOCUE","INCONGRUENT",671,0.5
14,1,1,1,70,"Male",16,59,"CENTRAL","INCONGRUENT",735,0.5
14,1,1,1,70,"Male",16,30,"DOUBLE","CONGRUENT",603,0.5
14,1,1,1,70,"Male",16,71,"SPATIAL","CONGRUENT",540,0.5
14,1,1,1,70,"Male",16,45,"DOUBLE","INCONGRUENT",607,0.5
14,1,1,1,70,"Male",16,60,"NOCUE","INCONGRUENT",637,0.5
14,1,1,1,70,"Male",16,49,"CENTRAL","CONGRUENT",396,0.5
15,1,1,0,79,"Female",0,95,"NOCUE","CONGRUENT",951,0.9
15,1,1,0,79,"Female",0,11,"CENTRAL","INCONGRUENT",1551,0.9
15,1,1,0,79,"Female",0,60,"CENTRAL","CONGRUENT",731,0.9
15,1,1,0,79,"Female",0,66,"SPATIAL","CONGRUENT",1050,0.9
15,1,1,0,79,"Female",0,59,"SPATIAL","INCONGRUENT",653,0.9
15,0,1,0,79,"Female",0,21,"CENTRAL","CONGRUENT",NA,0.9
15,1,1,0,79,"Female",0,87,"NOCUE","INCONGRUENT",1111,0.9
15,1,1,0,79,"Female",0,37,"NOCUE","CONGRUENT",631,0.9
15,1,1,0,79,"Female",0,88,"DOUBLE","INCONGRUENT",780,0.9
15,1,1,0,79,"Female",0,7,"SPATIAL","INCONGRUENT",1486,0.9
15,1,1,0,79,"Female",0,8,"CENTRAL","INCONGRUENT",1242,0.9
15,1,1,0,79,"Female",0,46,"DOUBLE","CONGRUENT",1168,0.9
15,1,1,0,79,"Female",0,15,"CENTRAL","INCONGRUENT",1058,0.9
15,1,1,0,79,"Female",0,13,"CENTRAL","CONGRUENT",1306,0.9
15,1,1,0,79,"Female",0,78,"SPATIAL","INCONGRUENT",903,0.9
15,1,1,0,79,"Female",0,38,"NOCUE","INCONGRUENT",1081,0.9
15,1,1,0,79,"Female",0,16,"NOCUE","INCONGRUENT",1431,0.9
15,1,1,0,79,"Female",0,82,"SPATIAL","INCONGRUENT",879,0.9
15,1,1,0,79,"Female",0,96,"SPATIAL","CONGRUENT",1041,0.9
15,1,1,0,79,"Female",0,35,"DOUBLE","INCONGRUENT",1470,0.9
15,0,1,0,79,"Female",0,70,"SPATIAL","INCONGRUENT",NA,0.9
15,1,1,0,79,"Female",0,47,"NOCUE","CONGRUENT",1178,0.9
15,1,1,0,79,"Female",0,6,"DOUBLE","CONGRUENT",1026,0.9
15,1,1,0,79,"Female",0,86,"CENTRAL","CONGRUENT",772,0.9
15,1,1,0,79,"Female",0,22,"SPATIAL","CONGRUENT",1555,0.9
15,1,1,0,79,"Female",0,72,"SPATIAL","CONGRUENT",1052,0.9
15,1,1,0,79,"Female",0,71,"DOUBLE","CONGRUENT",980,0.9
15,1,1,0,79,"Female",0,74,"SPATIAL","CONGRUENT",846,0.9
15,1,1,0,79,"Female",0,84,"CENTRAL","CONGRUENT",918,0.9
15,1,1,0,79,"Female",0,44,"SPATIAL","INCONGRUENT",667,0.9
15,1,1,0,79,"Female",0,18,"DOUBLE","CONGRUENT",860,0.9
15,1,1,0,79,"Female",0,75,"CENTRAL","CONGRUENT",811,0.9
15,1,1,0,79,"Female",0,51,"NOCUE","INCONGRUENT",1340,0.9
15,1,1,0,79,"Female",0,92,"NOCUE","INCONGRUENT",945,0.9
15,1,1,0,79,"Female",0,29,"DOUBLE","CONGRUENT",963,0.9
15,1,1,0,79,"Female",0,79,"SPATIAL","INCONGRUENT",872,0.9
15,1,1,0,79,"Female",0,58,"CENTRAL","CONGRUENT",844,0.9
15,1,1,0,79,"Female",0,43,"CENTRAL","INCONGRUENT",1054,0.9
15,1,1,0,79,"Female",0,93,"DOUBLE","CONGRUENT",861,0.9
15,1,1,0,79,"Female",0,40,"SPATIAL","INCONGRUENT",861,0.9
15,0,1,0,79,"Female",0,19,"SPATIAL","CONGRUENT",NA,0.9
15,1,1,0,79,"Female",0,26,"DOUBLE","CONGRUENT",1343,0.9
15,1,1,0,79,"Female",0,91,"SPATIAL","INCONGRUENT",1000,0.9
15,1,1,0,79,"Female",0,61,"NOCUE","INCONGRUENT",661,0.9
15,1,1,0,79,"Female",0,32,"DOUBLE","INCONGRUENT",963,0.9
15,1,1,0,79,"Female",0,62,"DOUBLE","INCONGRUENT",816,0.9
15,1,1,0,79,"Female",0,67,"DOUBLE","CONGRUENT",1094,0.9
15,1,1,0,79,"Female",0,90,"NOCUE","INCONGRUENT",1156,0.9
15,1,1,0,79,"Female",0,73,"SPATIAL","CONGRUENT",975,0.9
15,1,1,0,79,"Female",0,33,"DOUBLE","INCONGRUENT",1491,0.9
15,1,1,0,79,"Female",0,49,"NOCUE","INCONGRUENT",771,0.9
15,1,1,0,79,"Female",0,24,"NOCUE","INCONGRUENT",938,0.9
15,1,1,0,79,"Female",0,31,"CENTRAL","CONGRUENT",1249,0.9
15,1,1,0,79,"Female",0,77,"CENTRAL","INCONGRUENT",875,0.9
15,1,1,0,79,"Female",0,45,"DOUBLE","INCONGRUENT",1129,0.9
15,1,1,0,79,"Female",0,4,"DOUBLE","CONGRUENT",713,0.9
15,1,1,0,79,"Female",0,80,"CENTRAL","INCONGRUENT",863,0.9
15,1,1,0,79,"Female",0,52,"NOCUE","CONGRUENT",959,0.9
15,1,1,0,79,"Female",0,17,"SPATIAL","CONGRUENT",791,0.9
15,1,1,0,79,"Female",0,28,"NOCUE","CONGRUENT",820,0.9
15,1,1,0,79,"Female",0,12,"NOCUE","INCONGRUENT",1240,0.9
15,1,1,0,79,"Female",0,81,"NOCUE","CONGRUENT",1040,0.9
15,1,1,0,79,"Female",0,55,"CENTRAL","CONGRUENT",620,0.9
15,1,1,0,79,"Female",0,94,"SPATIAL","INCONGRUENT",1107,0.9
15,0,1,0,79,"Female",0,63,"DOUBLE","INCONGRUENT",NA,0.9
15,1,1,0,79,"Female",0,68,"SPATIAL","INCONGRUENT",1569,0.9
15,1,1,0,79,"Female",0,64,"DOUBLE","CONGRUENT",1277,0.9
15,1,1,0,79,"Female",0,30,"CENTRAL","INCONGRUENT",1172,0.9
15,1,1,0,79,"Female",0,3,"SPATIAL","CONGRUENT",1099,0.9
15,1,1,0,79,"Female",0,65,"SPATIAL","INCONGRUENT",1042,0.9
15,1,1,0,79,"Female",0,48,"DOUBLE","INCONGRUENT",1001,0.9
15,1,1,0,79,"Female",0,25,"DOUBLE","INCONGRUENT",722,0.9
15,1,1,0,79,"Female",0,9,"DOUBLE","INCONGRUENT",1093,0.9
15,1,1,0,79,"Female",0,27,"SPATIAL","CONGRUENT",1187,0.9
15,1,1,0,79,"Female",0,20,"NOCUE","CONGRUENT",957,0.9
15,1,1,0,79,"Female",0,83,"NOCUE","CONGRUENT",950,0.9
15,1,1,0,79,"Female",0,54,"CENTRAL","CONGRUENT",1084,0.9
15,1,1,0,79,"Female",0,76,"CENTRAL","INCONGRUENT",1051,0.9
15,1,1,0,79,"Female",0,53,"NOCUE","INCONGRUENT",969,0.9
15,1,1,0,79,"Female",0,57,"NOCUE","CONGRUENT",668,0.9
15,1,1,0,79,"Female",0,34,"CENTRAL","INCONGRUENT",1143,0.9
15,1,1,0,79,"Female",0,42,"CENTRAL","CONGRUENT",955,0.9
15,1,1,0,79,"Female",0,41,"DOUBLE","CONGRUENT",1005,0.9
15,1,1,0,79,"Female",0,10,"DOUBLE","INCONGRUENT",1309,0.9
15,1,1,0,79,"Female",0,39,"CENTRAL","CONGRUENT",751,0.9
15,1,1,0,79,"Female",0,69,"DOUBLE","INCONGRUENT",1329,0.9
15,1,1,0,79,"Female",0,36,"CENTRAL","INCONGRUENT",1179,0.9
15,1,1,0,79,"Female",0,89,"DOUBLE","CONGRUENT",839,0.9
15,1,1,0,79,"Female",0,56,"NOCUE","CONGRUENT",967,0.9
15,1,1,0,79,"Female",0,85,"NOCUE","INCONGRUENT",907,0.9
16,1,1,1,69,"Male",13,9,"CENTRAL","CONGRUENT",600,NA
16,1,1,1,69,"Male",13,7,"DOUBLE","CONGRUENT",578,NA
16,1,1,1,69,"Male",13,61,"NOCUE","CONGRUENT",753,NA
16,1,1,1,69,"Male",13,52,"DOUBLE","CONGRUENT",798,NA
16,1,1,1,69,"Male",13,5,"NOCUE","INCONGRUENT",784,NA
16,1,1,1,69,"Male",13,10,"NOCUE","INCONGRUENT",662,NA
16,1,1,1,69,"Male",13,33,"DOUBLE","INCONGRUENT",740,NA
16,1,1,1,69,"Male",13,4,"CENTRAL","INCONGRUENT",1107,NA
16,1,1,1,69,"Male",13,6,"SPATIAL","INCONGRUENT",928,NA
16,1,1,1,69,"Male",13,89,"DOUBLE","CONGRUENT",682,NA
16,1,1,1,69,"Male",13,93,"DOUBLE","CONGRUENT",1162,NA
16,1,1,1,69,"Male",13,60,"NOCUE","INCONGRUENT",1104,NA
16,1,1,1,69,"Male",13,51,"SPATIAL","CONGRUENT",669,NA
16,1,1,1,69,"Male",13,91,"SPATIAL","INCONGRUENT",794,NA
16,1,1,1,69,"Male",13,88,"DOUBLE","CONGRUENT",714,NA
16,1,1,1,69,"Male",13,47,"DOUBLE","CONGRUENT",852,NA
16,1,1,1,69,"Male",13,75,"SPATIAL","INCONGRUENT",812,NA
16,1,1,1,69,"Male",13,62,"DOUBLE","CONGRUENT",820,NA
16,1,1,1,69,"Male",13,71,"SPATIAL","CONGRUENT",1087,NA
16,1,1,1,69,"Male",13,68,"DOUBLE","INCONGRUENT",946,NA
16,1,1,1,69,"Male",13,8,"DOUBLE","INCONGRUENT",744,NA
16,1,1,1,69,"Male",13,56,"DOUBLE","INCONGRUENT",1699,NA
16,1,1,1,69,"Male",13,72,"DOUBLE","CONGRUENT",747,NA
16,1,1,1,69,"Male",13,34,"SPATIAL","INCONGRUENT",806,NA
16,1,1,1,69,"Male",13,86,"NOCUE","INCONGRUENT",888,NA
16,1,1,1,69,"Male",13,85,"NOCUE","INCONGRUENT",890,NA
16,1,1,1,69,"Male",13,92,"DOUBLE","INCONGRUENT",849,NA
16,1,1,1,69,"Male",13,90,"NOCUE","CONGRUENT",587,NA
16,1,1,1,69,"Male",13,29,"CENTRAL","CONGRUENT",926,NA
16,1,1,1,69,"Male",13,54,"NOCUE","INCONGRUENT",1202,NA
16,1,1,1,69,"Male",13,50,"NOCUE","CONGRUENT",842,NA
16,1,1,1,69,"Male",13,32,"CENTRAL","INCONGRUENT",936,NA
16,1,1,1,69,"Male",13,76,"NOCUE","CONGRUENT",586,NA
16,1,1,1,69,"Male",13,57,"CENTRAL","INCONGRUENT",1158,NA
16,1,1,1,69,"Male",13,82,"NOCUE","CONGRUENT",877,NA
16,1,1,1,69,"Male",13,59,"DOUBLE","INCONGRUENT",910,NA
16,1,1,1,69,"Male",13,67,"SPATIAL","INCONGRUENT",964,NA
16,1,1,1,69,"Male",13,46,"DOUBLE","CONGRUENT",486,NA
16,1,1,1,69,"Male",13,87,"DOUBLE","INCONGRUENT",649,NA
16,1,1,1,69,"Male",13,84,"NOCUE","INCONGRUENT",703,NA
16,1,1,1,69,"Male",13,49,"CENTRAL","INCONGRUENT",961,NA
16,1,1,1,69,"Male",13,14,"SPATIAL","INCONGRUENT",894,NA
16,1,1,1,69,"Male",13,63,"DOUBLE","CONGRUENT",1087,NA
16,1,1,1,69,"Male",13,69,"CENTRAL","CONGRUENT",876,NA
16,1,1,1,69,"Male",13,65,"SPATIAL","INCONGRUENT",848,NA
16,1,1,1,69,"Male",13,53,"SPATIAL","CONGRUENT",640,NA
16,1,1,1,69,"Male",13,55,"SPATIAL","INCONGRUENT",997,NA
16,1,1,1,69,"Male",13,79,"CENTRAL","CONGRUENT",670,NA
16,1,1,1,69,"Male",13,43,"NOCUE","INCONGRUENT",789,NA
16,1,1,1,69,"Male",13,83,"CENTRAL","INCONGRUENT",986,NA
16,1,1,1,69,"Male",13,31,"NOCUE","CONGRUENT",527,NA
16,1,1,1,69,"Male",13,13,"SPATIAL","INCONGRUENT",982,NA
16,1,1,1,69,"Male",13,45,"SPATIAL","CONGRUENT",587,NA
16,1,1,1,69,"Male",13,3,"CENTRAL","CONGRUENT",583,NA
16,1,1,1,69,"Male",13,48,"CENTRAL","INCONGRUENT",821,NA
16,1,1,1,69,"Male",13,73,"NOCUE","INCONGRUENT",760,NA
16,1,1,1,69,"Male",13,66,"CENTRAL","CONGRUENT",837,NA
16,1,1,1,69,"Male",13,41,"SPATIAL","CONGRUENT",639,NA
16,1,1,1,69,"Male",13,64,"CENTRAL","INCONGRUENT",973,NA
16,1,1,1,69,"Male",13,58,"DOUBLE","INCONGRUENT",869,NA
16,1,1,1,69,"Male",13,37,"CENTRAL","INCONGRUENT",1076,NA
16,1,1,1,69,"Male",13,81,"NOCUE","CONGRUENT",684,NA
16,1,1,1,69,"Male",13,80,"DOUBLE","CONGRUENT",708,NA
16,1,1,1,69,"Male",13,30,"NOCUE","INCONGRUENT",714,NA
16,1,1,1,69,"Male",13,44,"NOCUE","INCONGRUENT",674,NA
16,1,1,1,69,"Male",13,74,"DOUBLE","CONGRUENT",1358,NA
16,1,1,1,69,"Male",13,95,"CENTRAL","CONGRUENT",970,NA
16,1,1,1,69,"Male",13,11,"SPATIAL","CONGRUENT",612,NA
16,1,1,1,69,"Male",13,42,"NOCUE","CONGRUENT",714,NA
16,1,1,1,69,"Male",13,96,"CENTRAL","CONGRUENT",765,NA
16,1,1,1,69,"Male",13,19,"DOUBLE","INCONGRUENT",785,NA
16,1,1,1,69,"Male",13,26,"NOCUE","CONGRUENT",804,NA
16,1,1,1,69,"Male",13,25,"NOCUE","CONGRUENT",661,NA
16,1,1,1,69,"Male",13,28,"SPATIAL","CONGRUENT",641,NA
16,1,1,1,69,"Male",13,70,"SPATIAL","CONGRUENT",897,NA
16,1,1,1,69,"Male",13,16,"SPATIAL","CONGRUENT",614,NA
16,1,1,1,69,"Male",13,1,"SPATIAL","INCONGRUENT",770,NA
16,1,1,1,69,"Male",13,12,"SPATIAL","INCONGRUENT",705,NA
16,1,1,1,69,"Male",13,24,"NOCUE","CONGRUENT",828,NA
16,1,1,1,69,"Male",13,23,"NOCUE","INCONGRUENT",586,NA
16,1,1,1,69,"Male",13,20,"SPATIAL","CONGRUENT",737,NA
16,1,1,1,69,"Male",13,36,"CENTRAL","INCONGRUENT",860,NA
16,1,1,1,69,"Male",13,27,"CENTRAL","CONGRUENT",694,NA
16,1,1,1,69,"Male",13,17,"DOUBLE","INCONGRUENT",822,NA
16,1,1,1,69,"Male",13,94,"SPATIAL","INCONGRUENT",597,NA
16,1,1,1,69,"Male",13,78,"CENTRAL","INCONGRUENT",746,NA
16,1,1,1,69,"Male",13,2,"NOCUE","CONGRUENT",537,NA
16,1,1,1,69,"Male",13,38,"CENTRAL","CONGRUENT",591,NA
16,1,1,1,69,"Male",13,40,"CENTRAL","INCONGRUENT",910,NA
16,1,1,1,69,"Male",13,39,"DOUBLE","INCONGRUENT",768,NA
16,1,1,1,69,"Male",13,18,"CENTRAL","CONGRUENT",531,NA
16,1,1,1,69,"Male",13,77,"SPATIAL","CONGRUENT",946,NA
16,1,1,1,69,"Male",13,15,"CENTRAL","CONGRUENT",591,NA
16,1,1,1,69,"Male",13,35,"SPATIAL","CONGRUENT",732,NA
16,1,1,1,69,"Male",13,22,"CENTRAL","INCONGRUENT",576,NA
16,1,1,1,69,"Male",13,21,"DOUBLE","INCONGRUENT",891,NA
17,1,1,1,77,"Male",12,49,"NOCUE","CONGRUENT",671,0.7
17,1,1,1,77,"Male",12,47,"CENTRAL","INCONGRUENT",591,0.7
17,1,1,1,77,"Male",12,24,"NOCUE","CONGRUENT",531,0.7
17,1,1,1,77,"Male",12,64,"DOUBLE","INCONGRUENT",677,0.7
17,1,1,1,77,"Male",12,7,"CENTRAL","CONGRUENT",566,0.7
17,1,1,1,77,"Male",12,14,"CENTRAL","INCONGRUENT",843,0.7
17,1,1,1,77,"Male",12,50,"NOCUE","CONGRUENT",786,0.7
17,1,1,1,77,"Male",12,37,"DOUBLE","INCONGRUENT",623,0.7
17,1,1,1,77,"Male",12,36,"NOCUE","CONGRUENT",633,0.7
17,1,1,1,77,"Male",12,38,"NOCUE","INCONGRUENT",530,0.7
17,1,1,1,77,"Male",12,95,"SPATIAL","CONGRUENT",513,0.7
17,1,1,1,77,"Male",12,67,"CENTRAL","INCONGRUENT",516,0.7
17,1,1,1,77,"Male",12,69,"CENTRAL","CONGRUENT",469,0.7
17,1,1,1,77,"Male",12,68,"DOUBLE","INCONGRUENT",440,0.7
17,1,1,1,77,"Male",12,71,"DOUBLE","INCONGRUENT",697,0.7
17,1,1,1,77,"Male",12,75,"NOCUE","CONGRUENT",575,0.7
17,1,1,1,77,"Male",12,27,"DOUBLE","CONGRUENT",519,0.7
17,1,1,1,77,"Male",12,77,"CENTRAL","INCONGRUENT",658,0.7
17,1,1,1,77,"Male",12,41,"SPATIAL","INCONGRUENT",470,0.7
17,1,1,1,77,"Male",12,6,"DOUBLE","CONGRUENT",689,0.7
17,1,1,1,77,"Male",12,81,"NOCUE","INCONGRUENT",575,0.7
17,1,1,1,77,"Male",12,2,"SPATIAL","CONGRUENT",500,0.7
17,1,1,1,77,"Male",12,65,"CENTRAL","INCONGRUENT",700,0.7
17,1,1,1,77,"Male",12,56,"SPATIAL","CONGRUENT",459,0.7
17,1,1,1,77,"Male",12,5,"DOUBLE","INCONGRUENT",773,0.7
17,1,1,1,77,"Male",12,45,"NOCUE","INCONGRUENT",650,0.7
17,1,1,1,77,"Male",12,90,"NOCUE","INCONGRUENT",730,0.7
17,1,1,1,77,"Male",12,35,"DOUBLE","INCONGRUENT",519,0.7
17,1,1,1,77,"Male",12,12,"DOUBLE","CONGRUENT",579,0.7
17,1,1,1,77,"Male",12,15,"SPATIAL","INCONGRUENT",523,0.7
17,1,1,1,77,"Male",12,23,"DOUBLE","INCONGRUENT",736,0.7
17,1,1,1,77,"Male",12,8,"NOCUE","CONGRUENT",562,0.7
17,1,1,1,77,"Male",12,80,"NOCUE","INCONGRUENT",587,0.7
17,1,1,1,77,"Male",12,59,"NOCUE","CONGRUENT",474,0.7
17,1,1,1,77,"Male",12,33,"CENTRAL","INCONGRUENT",598,0.7
17,1,1,1,77,"Male",12,40,"DOUBLE","INCONGRUENT",577,0.7
17,1,1,1,77,"Male",12,96,"SPATIAL","CONGRUENT",504,0.7
17,1,1,1,77,"Male",12,22,"DOUBLE","INCONGRUENT",737,0.7
17,1,1,1,77,"Male",12,46,"SPATIAL","INCONGRUENT",552,0.7
17,1,1,1,77,"Male",12,43,"SPATIAL","INCONGRUENT",516,0.7
17,1,1,1,77,"Male",12,28,"SPATIAL","CONGRUENT",787,0.7
17,1,1,1,77,"Male",12,1,"NOCUE","CONGRUENT",671,0.7
17,1,1,1,77,"Male",12,48,"NOCUE","CONGRUENT",516,0.7
17,1,1,1,77,"Male",12,61,"SPATIAL","CONGRUENT",480,0.7
17,1,1,1,77,"Male",12,29,"SPATIAL","CONGRUENT",513,0.7
17,1,1,1,77,"Male",12,44,"CENTRAL","CONGRUENT",521,0.7
17,1,1,1,77,"Male",12,26,"NOCUE","INCONGRUENT",479,0.7
17,1,1,1,77,"Male",12,16,"CENTRAL","INCONGRUENT",682,0.7
17,1,1,1,77,"Male",12,20,"SPATIAL","INCONGRUENT",470,0.7
17,1,1,1,77,"Male",12,66,"CENTRAL","CONGRUENT",451,0.7
17,1,1,1,77,"Male",12,91,"DOUBLE","CONGRUENT",499,0.7
17,1,1,1,77,"Male",12,79,"CENTRAL","CONGRUENT",480,0.7
17,1,1,1,77,"Male",12,30,"NOCUE","CONGRUENT",534,0.7
17,1,1,1,77,"Male",12,42,"NOCUE","INCONGRUENT",676,0.7
17,1,1,1,77,"Male",12,21,"SPATIAL","INCONGRUENT",858,0.7
17,1,1,1,77,"Male",12,84,"CENTRAL","CONGRUENT",564,0.7
17,1,1,1,77,"Male",12,62,"SPATIAL","INCONGRUENT",553,0.7
17,1,1,1,77,"Male",12,82,"CENTRAL","CONGRUENT",599,0.7
17,1,1,1,77,"Male",12,83,"NOCUE","INCONGRUENT",582,0.7
17,1,1,1,77,"Male",12,53,"NOCUE","INCONGRUENT",645,0.7
17,1,1,1,77,"Male",12,88,"CENTRAL","INCONGRUENT",847,0.7
17,1,1,1,77,"Male",12,60,"SPATIAL","INCONGRUENT",605,0.7
17,1,1,1,77,"Male",12,76,"SPATIAL","CONGRUENT",612,0.7
17,1,1,1,77,"Male",12,70,"CENTRAL","CONGRUENT",582,0.7
17,1,1,1,77,"Male",12,74,"SPATIAL","INCONGRUENT",794,0.7
17,1,1,1,77,"Male",12,73,"NOCUE","INCONGRUENT",529,0.7
17,1,1,1,77,"Male",12,54,"CENTRAL","INCONGRUENT",703,0.7
17,1,1,1,77,"Male",12,86,"SPATIAL","CONGRUENT",483,0.7
17,1,1,1,77,"Male",12,9,"CENTRAL","CONGRUENT",518,0.7
17,1,1,1,77,"Male",12,51,"CENTRAL","CONGRUENT",482,0.7
17,1,1,1,77,"Male",12,25,"CENTRAL","INCONGRUENT",529,0.7
17,1,1,1,77,"Male",12,63,"NOCUE","CONGRUENT",475,0.7
17,1,1,1,77,"Male",12,11,"DOUBLE","CONGRUENT",539,0.7
17,1,1,1,77,"Male",12,32,"DOUBLE","CONGRUENT",649,0.7
17,1,1,1,77,"Male",12,34,"SPATIAL","CONGRUENT",566,0.7
17,1,1,1,77,"Male",12,10,"SPATIAL","INCONGRUENT",481,0.7
17,1,1,1,77,"Male",12,72,"DOUBLE","CONGRUENT",458,0.7
17,1,1,1,77,"Male",12,3,"SPATIAL","INCONGRUENT",768,0.7
17,1,1,1,77,"Male",12,89,"SPATIAL","CONGRUENT",552,0.7
17,1,1,1,77,"Male",12,94,"DOUBLE","CONGRUENT",596,0.7
17,1,1,1,77,"Male",12,92,"CENTRAL","CONGRUENT",472,0.7
17,1,1,1,77,"Male",12,13,"DOUBLE","CONGRUENT",462,0.7
17,1,1,1,77,"Male",12,78,"DOUBLE","INCONGRUENT",652,0.7
17,1,1,1,77,"Male",12,39,"NOCUE","INCONGRUENT",505,0.7
17,1,1,1,77,"Male",12,57,"CENTRAL","INCONGRUENT",505,0.7
17,1,1,1,77,"Male",12,87,"NOCUE","INCONGRUENT",799,0.7
17,1,1,1,77,"Male",12,31,"SPATIAL","INCONGRUENT",592,0.7
17,1,1,1,77,"Male",12,85,"DOUBLE","CONGRUENT",504,0.7
17,1,1,1,77,"Male",12,93,"CENTRAL","INCONGRUENT",463,0.7
17,1,1,1,77,"Male",12,18,"SPATIAL","CONGRUENT",453,0.7
17,1,1,1,77,"Male",12,4,"DOUBLE","INCONGRUENT",699,0.7
17,1,1,1,77,"Male",12,52,"NOCUE","CONGRUENT",445,0.7
17,1,1,1,77,"Male",12,55,"DOUBLE","INCONGRUENT",511,0.7
17,1,1,1,77,"Male",12,17,"DOUBLE","CONGRUENT",419,0.7
17,1,1,1,77,"Male",12,58,"DOUBLE","CONGRUENT",574,0.7
17,1,1,1,77,"Male",12,19,"CENTRAL","CONGRUENT",522,0.7
18,1,1,1,79,"Female",0,68,"DOUBLE","INCONGRUENT",697,0.6
18,1,1,1,79,"Female",0,57,"DOUBLE","INCONGRUENT",773,0.6
18,1,1,1,79,"Female",0,28,"SPATIAL","CONGRUENT",636,0.6
18,1,1,1,79,"Female",0,44,"CENTRAL","CONGRUENT",745,0.6
18,1,1,1,79,"Female",0,42,"DOUBLE","CONGRUENT",690,0.6
18,1,1,1,79,"Female",0,46,"SPATIAL","CONGRUENT",692,0.6
18,1,1,1,79,"Female",0,8,"DOUBLE","INCONGRUENT",771,0.6
18,1,1,1,79,"Female",0,82,"CENTRAL","CONGRUENT",778,0.6
18,1,1,1,79,"Female",0,26,"SPATIAL","INCONGRUENT",613,0.6
18,1,1,1,79,"Female",0,73,"SPATIAL","CONGRUENT",600,0.6
18,1,1,1,79,"Female",0,32,"SPATIAL","INCONGRUENT",831,0.6
18,1,1,1,79,"Female",0,66,"SPATIAL","INCONGRUENT",628,0.6
18,1,1,1,79,"Female",0,85,"CENTRAL","CONGRUENT",544,0.6
18,1,1,1,79,"Female",0,51,"SPATIAL","CONGRUENT",653,0.6
18,1,1,1,79,"Female",0,56,"CENTRAL","CONGRUENT",699,0.6
18,1,1,1,79,"Female",0,23,"NOCUE","CONGRUENT",782,0.6
18,1,1,1,79,"Female",0,93,"SPATIAL","INCONGRUENT",604,0.6
18,1,1,1,79,"Female",0,89,"SPATIAL","INCONGRUENT",637,0.6
18,1,1,1,79,"Female",0,48,"NOCUE","INCONGRUENT",529,0.6
18,1,1,1,79,"Female",0,80,"DOUBLE","CONGRUENT",589,0.6
18,1,1,1,79,"Female",0,41,"SPATIAL","CONGRUENT",876,0.6
18,1,1,1,79,"Female",0,50,"CENTRAL","CONGRUENT",896,0.6
18,1,1,1,79,"Female",0,59,"CENTRAL","INCONGRUENT",654,0.6
18,1,1,1,79,"Female",0,55,"SPATIAL","INCONGRUENT",707,0.6
18,1,1,1,79,"Female",0,7,"SPATIAL","INCONGRUENT",688,0.6
18,1,1,1,79,"Female",0,72,"CENTRAL","INCONGRUENT",632,0.6
18,1,1,1,79,"Female",0,53,"CENTRAL","INCONGRUENT",619,0.6
18,1,1,1,79,"Female",0,33,"SPATIAL","INCONGRUENT",802,0.6
18,1,1,1,79,"Female",0,60,"DOUBLE","INCONGRUENT",863,0.6
18,1,1,1,79,"Female",0,40,"CENTRAL","INCONGRUENT",668,0.6
18,1,1,1,79,"Female",0,64,"DOUBLE","INCONGRUENT",747,0.6
18,1,1,1,79,"Female",0,25,"DOUBLE","INCONGRUENT",666,0.6
18,1,1,1,79,"Female",0,69,"NOCUE","CONGRUENT",705,0.6
18,1,1,1,79,"Female",0,29,"SPATIAL","CONGRUENT",767,0.6
18,1,1,1,79,"Female",0,88,"DOUBLE","CONGRUENT",613,0.6
18,1,1,1,79,"Female",0,92,"DOUBLE","INCONGRUENT",655,0.6
18,1,1,1,79,"Female",0,71,"CENTRAL","INCONGRUENT",659,0.6
18,1,1,1,79,"Female",0,34,"NOCUE","INCONGRUENT",892,0.6
18,1,1,1,79,"Female",0,61,"NOCUE","INCONGRUENT",615,0.6
18,1,1,1,79,"Female",0,5,"DOUBLE","CONGRUENT",1017,0.6
18,1,1,1,79,"Female",0,47,"CENTRAL","INCONGRUENT",852,0.6
18,1,1,1,79,"Female",0,63,"SPATIAL","CONGRUENT",754,0.6
18,1,1,1,79,"Female",0,36,"NOCUE","CONGRUENT",1103,0.6
18,1,1,1,79,"Female",0,62,"CENTRAL","CONGRUENT",515,0.6
18,1,1,1,79,"Female",0,79,"NOCUE","CONGRUENT",940,0.6
18,1,1,1,79,"Female",0,45,"NOCUE","CONGRUENT",654,0.6
18,0,1,1,79,"Female",0,15,"CENTRAL","CONGRUENT",NA,0.6
18,1,1,1,79,"Female",0,86,"DOUBLE","CONGRUENT",771,0.6
18,1,1,1,79,"Female",0,20,"CENTRAL","CONGRUENT",905,0.6
18,1,1,1,79,"Female",0,95,"DOUBLE","CONGRUENT",681,0.6
18,1,1,1,79,"Female",0,4,"SPATIAL","CONGRUENT",766,0.6
18,1,1,1,79,"Female",0,35,"DOUBLE","INCONGRUENT",718,0.6
18,1,1,1,79,"Female",0,75,"NOCUE","INCONGRUENT",780,0.6
18,1,1,1,79,"Female",0,52,"SPATIAL","INCONGRUENT",746,0.6
18,1,1,1,79,"Female",0,22,"SPATIAL","CONGRUENT",919,0.6
18,1,1,1,79,"Female",0,31,"NOCUE","CONGRUENT",746,0.6
18,1,1,1,79,"Female",0,19,"NOCUE","CONGRUENT",656,0.6
18,1,1,1,79,"Female",0,16,"CENTRAL","INCONGRUENT",1500,0.6
18,1,1,1,79,"Female",0,17,"NOCUE","CONGRUENT",1069,0.6
18,1,1,1,79,"Female",0,1,"SPATIAL","INCONGRUENT",675,0.6
18,1,1,1,79,"Female",0,58,"CENTRAL","INCONGRUENT",734,0.6
18,1,1,1,79,"Female",0,27,"NOCUE","INCONGRUENT",531,0.6
18,1,1,1,79,"Female",0,81,"NOCUE","CONGRUENT",625,0.6
18,1,1,1,79,"Female",0,43,"NOCUE","CONGRUENT",587,0.6
18,1,1,1,79,"Female",0,14,"NOCUE","INCONGRUENT",1035,0.6
18,1,1,1,79,"Female",0,10,"CENTRAL","CONGRUENT",735,0.6
18,1,1,1,79,"Female",0,74,"CENTRAL","INCONGRUENT",793,0.6
18,1,1,1,79,"Female",0,87,"CENTRAL","CONGRUENT",711,0.6
18,1,1,1,79,"Female",0,70,"DOUBLE","INCONGRUENT",754,0.6
18,1,1,1,79,"Female",0,2,"SPATIAL","INCONGRUENT",1066,0.6
18,1,1,1,79,"Female",0,77,"SPATIAL","CONGRUENT",978,0.6
18,1,1,1,79,"Female",0,96,"NOCUE","INCONGRUENT",945,0.6
18,1,1,1,79,"Female",0,91,"DOUBLE","INCONGRUENT",560,0.6
18,1,1,1,79,"Female",0,65,"CENTRAL","CONGRUENT",823,0.6
18,1,1,1,79,"Female",0,54,"DOUBLE","CONGRUENT",818,0.6
18,1,1,1,79,"Female",0,84,"NOCUE","INCONGRUENT",791,0.6
18,1,1,1,79,"Female",0,3,"DOUBLE","CONGRUENT",1196,0.6
18,1,1,1,79,"Female",0,39,"NOCUE","INCONGRUENT",744,0.6
18,1,1,1,79,"Female",0,24,"CENTRAL","CONGRUENT",1023,0.6
18,1,1,1,79,"Female",0,21,"NOCUE","INCONGRUENT",847,0.6
18,1,1,1,79,"Female",0,37,"DOUBLE","CONGRUENT",696,0.6
18,1,1,1,79,"Female",0,9,"CENTRAL","INCONGRUENT",844,0.6
18,1,1,1,79,"Female",0,18,"DOUBLE","CONGRUENT",671,0.6
18,1,1,1,79,"Female",0,49,"NOCUE","CONGRUENT",652,0.6
18,1,1,1,79,"Female",0,30,"CENTRAL","INCONGRUENT",1245,0.6
18,1,1,1,79,"Female",0,78,"SPATIAL","CONGRUENT",488,0.6
18,1,1,1,79,"Female",0,76,"NOCUE","INCONGRUENT",661,0.6
18,1,1,1,79,"Female",0,83,"SPATIAL","CONGRUENT",676,0.6
18,1,1,1,79,"Female",0,6,"NOCUE","CONGRUENT",1017,0.6
18,1,1,1,79,"Female",0,11,"DOUBLE","INCONGRUENT",743,0.6
18,1,1,1,79,"Female",0,94,"DOUBLE","CONGRUENT",642,0.6
18,1,1,1,79,"Female",0,90,"DOUBLE","INCONGRUENT",688,0.6
18,1,1,1,79,"Female",0,67,"SPATIAL","INCONGRUENT",1028,0.6
18,1,1,1,79,"Female",0,13,"DOUBLE","CONGRUENT",1433,0.6
18,1,1,1,79,"Female",0,38,"CENTRAL","INCONGRUENT",726,0.6
19,1,1,1,69,"Male",6,69,"SPATIAL","INCONGRUENT",670,0.9
19,1,1,1,69,"Male",6,51,"CENTRAL","CONGRUENT",580,0.9
19,1,1,1,69,"Male",6,44,"DOUBLE","CONGRUENT",599,0.9
19,1,1,1,69,"Male",6,58,"DOUBLE","CONGRUENT",538,0.9
19,1,1,1,69,"Male",6,78,"CENTRAL","INCONGRUENT",610,0.9
19,1,1,1,69,"Male",6,39,"NOCUE","INCONGRUENT",613,0.9
19,1,1,1,69,"Male",6,67,"DOUBLE","INCONGRUENT",508,0.9
19,1,1,1,69,"Male",6,53,"SPATIAL","INCONGRUENT",572,0.9
19,1,1,1,69,"Male",6,25,"CENTRAL","CONGRUENT",537,0.9
19,1,1,1,69,"Male",6,68,"CENTRAL","INCONGRUENT",482,0.9
19,1,1,1,69,"Male",6,7,"SPATIAL","CONGRUENT",653,0.9
19,1,1,1,69,"Male",6,42,"DOUBLE","INCONGRUENT",731,0.9
19,1,1,1,69,"Male",6,52,"DOUBLE","INCONGRUENT",628,0.9
19,1,1,1,69,"Male",6,24,"SPATIAL","CONGRUENT",543,0.9
19,1,1,1,69,"Male",6,79,"NOCUE","CONGRUENT",498,0.9
19,1,1,1,69,"Male",6,75,"SPATIAL","INCONGRUENT",619,0.9
19,1,1,1,69,"Male",6,28,"DOUBLE","CONGRUENT",540,0.9
19,1,1,1,69,"Male",6,23,"CENTRAL","CONGRUENT",650,0.9
19,1,1,1,69,"Male",6,59,"SPATIAL","CONGRUENT",507,0.9
19,1,1,1,69,"Male",6,86,"NOCUE","INCONGRUENT",803,0.9
19,1,1,1,69,"Male",6,73,"NOCUE","INCONGRUENT",557,0.9
19,1,1,1,69,"Male",6,54,"CENTRAL","CONGRUENT",593,0.9
19,1,1,1,69,"Male",6,90,"NOCUE","CONGRUENT",581,0.9
19,1,1,1,69,"Male",6,64,"CENTRAL","CONGRUENT",596,0.9
19,1,1,1,69,"Male",6,8,"SPATIAL","CONGRUENT",718,0.9
19,1,1,1,69,"Male",6,66,"SPATIAL","INCONGRUENT",605,0.9
19,1,1,1,69,"Male",6,40,"DOUBLE","CONGRUENT",540,0.9
19,1,1,1,69,"Male",6,33,"NOCUE","INCONGRUENT",786,0.9
19,1,1,1,69,"Male",6,32,"SPATIAL","CONGRUENT",497,0.9
19,1,1,1,69,"Male",6,46,"DOUBLE","CONGRUENT",593,0.9
19,1,1,1,69,"Male",6,36,"DOUBLE","CONGRUENT",560,0.9
19,1,1,1,69,"Male",6,49,"SPATIAL","CONGRUENT",528,0.9
19,1,1,1,69,"Male",6,6,"NOCUE","INCONGRUENT",581,0.9
19,1,1,1,69,"Male",6,47,"NOCUE","INCONGRUENT",610,0.9
19,1,1,1,69,"Male",6,2,"DOUBLE","CONGRUENT",822,0.9
19,1,1,1,69,"Male",6,9,"NOCUE","CONGRUENT",649,0.9
19,1,1,1,69,"Male",6,87,"SPATIAL","INCONGRUENT",616,0.9
19,1,1,1,69,"Male",6,72,"SPATIAL","INCONGRUENT",718,0.9
19,1,1,1,69,"Male",6,12,"SPATIAL","INCONGRUENT",727,0.9
19,1,1,1,69,"Male",6,57,"DOUBLE","INCONGRUENT",621,0.9
19,1,1,1,69,"Male",6,41,"DOUBLE","INCONGRUENT",673,0.9
19,1,1,1,69,"Male",6,5,"DOUBLE","INCONGRUENT",709,0.9
19,1,1,1,69,"Male",6,17,"DOUBLE","INCONGRUENT",819,0.9
19,1,1,1,69,"Male",6,1,"CENTRAL","CONGRUENT",779,0.9
19,1,1,1,69,"Male",6,76,"CENTRAL","INCONGRUENT",637,0.9
19,1,1,1,69,"Male",6,27,"CENTRAL","CONGRUENT",745,0.9
19,1,1,1,69,"Male",6,34,"SPATIAL","CONGRUENT",586,0.9
19,1,1,1,69,"Male",6,80,"CENTRAL","INCONGRUENT",496,0.9
19,1,1,1,69,"Male",6,95,"SPATIAL","CONGRUENT",531,0.9
19,1,1,1,69,"Male",6,26,"CENTRAL","CONGRUENT",549,0.9
19,1,1,1,69,"Male",6,85,"DOUBLE","INCONGRUENT",527,0.9
19,1,1,1,69,"Male",6,48,"CENTRAL","CONGRUENT",466,0.9
19,1,1,1,69,"Male",6,35,"NOCUE","INCONGRUENT",562,0.9
19,1,1,1,69,"Male",6,91,"DOUBLE","CONGRUENT",530,0.9
19,1,1,1,69,"Male",6,38,"NOCUE","INCONGRUENT",714,0.9
19,1,1,1,69,"Male",6,74,"DOUBLE","INCONGRUENT",565,0.9
19,1,1,1,69,"Male",6,60,"DOUBLE","CONGRUENT",576,0.9
19,1,1,1,69,"Male",6,4,"SPATIAL","CONGRUENT",769,0.9
19,1,1,1,69,"Male",6,31,"NOCUE","CONGRUENT",490,0.9
19,1,1,1,69,"Male",6,96,"SPATIAL","INCONGRUENT",571,0.9
19,1,1,1,69,"Male",6,21,"DOUBLE","INCONGRUENT",573,0.9
19,1,1,1,69,"Male",6,20,"NOCUE","INCONGRUENT",689,0.9
19,1,1,1,69,"Male",6,50,"NOCUE","CONGRUENT",488,0.9
19,1,1,1,69,"Male",6,65,"DOUBLE","CONGRUENT",494,0.9
19,1,1,1,69,"Male",6,94,"SPATIAL","CONGRUENT",592,0.9
19,1,1,1,69,"Male",6,83,"NOCUE","CONGRUENT",538,0.9
19,1,1,1,69,"Male",6,14,"NOCUE","INCONGRUENT",819,0.9
19,1,1,1,69,"Male",6,16,"CENTRAL","INCONGRUENT",594,0.9
19,1,1,1,69,"Male",6,37,"NOCUE","CONGRUENT",537,0.9
19,1,1,1,69,"Male",6,61,"CENTRAL","INCONGRUENT",543,0.9
19,1,1,1,69,"Male",6,3,"SPATIAL","CONGRUENT",573,0.9
19,1,1,1,69,"Male",6,55,"NOCUE","CONGRUENT",563,0.9
19,1,1,1,69,"Male",6,71,"SPATIAL","CONGRUENT",596,0.9
19,1,1,1,69,"Male",6,89,"DOUBLE","INCONGRUENT",639,0.9
19,1,1,1,69,"Male",6,81,"SPATIAL","INCONGRUENT",494,0.9
19,1,1,1,69,"Male",6,30,"SPATIAL","INCONGRUENT",561,0.9
19,1,1,1,69,"Male",6,43,"CENTRAL","CONGRUENT",550,0.9
19,1,1,1,69,"Male",6,18,"CENTRAL","INCONGRUENT",718,0.9
19,1,1,1,69,"Male",6,88,"NOCUE","INCONGRUENT",468,0.9
19,1,1,1,69,"Male",6,15,"CENTRAL","INCONGRUENT",650,0.9
19,1,1,1,69,"Male",6,29,"CENTRAL","INCONGRUENT",504,0.9
19,1,1,1,69,"Male",6,77,"CENTRAL","CONGRUENT",509,0.9
19,1,1,1,69,"Male",6,84,"NOCUE","CONGRUENT",500,0.9
19,1,1,1,69,"Male",6,13,"CENTRAL","INCONGRUENT",766,0.9
19,1,1,1,69,"Male",6,11,"SPATIAL","INCONGRUENT",516,0.9
19,1,1,1,69,"Male",6,70,"NOCUE","INCONGRUENT",560,0.9
19,1,1,1,69,"Male",6,93,"NOCUE","CONGRUENT",636,0.9
19,1,1,1,69,"Male",6,62,"CENTRAL","INCONGRUENT",557,0.9
19,1,1,1,69,"Male",6,63,"DOUBLE","CONGRUENT",476,0.9
19,1,1,1,69,"Male",6,22,"CENTRAL","INCONGRUENT",630,0.9
19,1,1,1,69,"Male",6,56,"SPATIAL","INCONGRUENT",672,0.9
19,1,1,1,69,"Male",6,92,"NOCUE","CONGRUENT",482,0.9
19,1,1,1,69,"Male",6,19,"DOUBLE","INCONGRUENT",724,0.9
19,1,1,1,69,"Male",6,10,"CENTRAL","CONGRUENT",567,0.9
19,1,1,1,69,"Male",6,45,"NOCUE","CONGRUENT",556,0.9
19,1,1,1,69,"Male",6,82,"DOUBLE","CONGRUENT",583,0.9
20,1,1,1,70,"Male",6,68,"DOUBLE","INCONGRUENT",855,0.8
20,1,1,1,70,"Male",6,57,"DOUBLE","CONGRUENT",634,0.8
20,1,1,1,70,"Male",6,53,"NOCUE","CONGRUENT",1107,0.8
20,1,1,1,70,"Male",6,95,"CENTRAL","INCONGRUENT",604,0.8
20,1,1,1,70,"Male",6,96,"CENTRAL","INCONGRUENT",574,0.8
20,1,1,1,70,"Male",6,94,"DOUBLE","INCONGRUENT",997,0.8
20,1,1,1,70,"Male",6,80,"SPATIAL","INCONGRUENT",1082,0.8
20,1,1,1,70,"Male",6,8,"SPATIAL","CONGRUENT",1187,0.8
20,1,1,1,70,"Male",6,27,"SPATIAL","CONGRUENT",934,0.8
20,1,1,1,70,"Male",6,59,"SPATIAL","CONGRUENT",1554,0.8
20,1,1,1,70,"Male",6,69,"DOUBLE","CONGRUENT",1275,0.8
20,1,1,1,70,"Male",6,14,"NOCUE","INCONGRUENT",1041,0.8
20,1,1,1,70,"Male",6,15,"DOUBLE","INCONGRUENT",1139,0.8
20,1,1,1,70,"Male",6,32,"CENTRAL","INCONGRUENT",1107,0.8
20,1,1,1,70,"Male",6,79,"CENTRAL","INCONGRUENT",730,0.8
20,1,1,1,70,"Male",6,56,"NOCUE","CONGRUENT",912,0.8
20,1,1,1,70,"Male",6,2,"SPATIAL","CONGRUENT",1501,0.8
20,1,1,1,70,"Male",6,82,"CENTRAL","INCONGRUENT",615,0.8
20,1,1,1,70,"Male",6,72,"SPATIAL","CONGRUENT",852,0.8
20,1,1,1,70,"Male",6,1,"NOCUE","CONGRUENT",913,0.8
20,1,1,1,70,"Male",6,16,"CENTRAL","INCONGRUENT",735,0.8
20,1,1,1,70,"Male",6,55,"NOCUE","INCONGRUENT",661,0.8
20,1,1,1,70,"Male",6,10,"CENTRAL","CONGRUENT",797,0.8
20,1,1,1,70,"Male",6,52,"SPATIAL","INCONGRUENT",805,0.8
20,1,1,1,70,"Male",6,85,"DOUBLE","INCONGRUENT",646,0.8
20,1,1,1,70,"Male",6,46,"NOCUE","INCONGRUENT",889,0.8
20,1,1,1,70,"Male",6,31,"SPATIAL","CONGRUENT",737,0.8
20,1,1,1,70,"Male",6,86,"SPATIAL","INCONGRUENT",749,0.8
20,1,1,1,70,"Male",6,65,"DOUBLE","CONGRUENT",946,0.8
20,1,1,1,70,"Male",6,6,"SPATIAL","INCONGRUENT",1354,0.8
